workerid,rt,content,trigger,short_trigger,question_type,trigger_class,response,block,age,trial
2,4864,hat,MC6,MC,ai,NonProj,0.0600000000000001,block1,35,1
2,7770,pool,revealed,revealed,ai,C,0.85,block1,35,2
2,4115,ditch,is_annoyed,is_annoyed,ai,C,0.86,block1,35,3
2,6311,garage,realize,realize,ai,C,0.95,block1,35,4
2,6233,poodle,MC7,MC,ai,NonProj,0.03,block1,35,5
2,4792,poem,noticed,noticed,ai,C,0.94,block1,35,6
2,2896,cupcakes,MC3,MC,ai,NonProj,0.13,block1,35,7
2,3644,dancing,is_aware,is_aware,ai,C,0.98,block1,35,8
2,3362,nails,MC2,MC,ai,NonProj,0.08,block1,35,9
2,5923,yoga,found_out,found_out,ai,C,0.95,block1,35,10
2,4635,zoo,saw,saw,ai,C,0.95,block1,35,11
2,5202,tea,discovered,discovered,ai,C,0.94,block1,35,12
2,2994,picture,MC1,MC,ai,NonProj,0.07,block1,35,13
2,4087,swing,confessed,confessed,ai,C,0.92,block1,35,14
2,2830,frisbee,learned,learned,ai,C,0.93,block1,35,15
2,2638,damp,is_amused,is_amused,ai,C,0.95,block1,35,16
2,2865,purple,MC4,MC,ai,NonProj,0.05,block1,35,17
2,3293,chili,MC5,MC,ai,NonProj,0.07,block1,35,18
2,2300,bmw,established,established,ai,C,0.94,block1,35,19
2,3319,horse,MC8,MC,ai,NonProj,0.07,block1,35,20
2,3728,nails,MC2,MC,projective,NonProj,0.08,block2,35,21
2,3239,horse,MC8,MC,projective,NonProj,0.08,block2,35,22
2,4407,bmw,established,established,projective,C,0.74,block2,35,23
2,3450,garage,realize,realize,projective,C,0.75,block2,35,24
2,2568,poodle,MC7,MC,projective,NonProj,0.05,block2,35,25
2,4466,swing,confessed,confessed,projective,C,0.73,block2,35,26
2,3383,tea,discovered,discovered,projective,C,0.82,block2,35,27
2,4431,ditch,is_annoyed,is_annoyed,projective,C,0.86,block2,35,28
2,2393,chili,MC5,MC,projective,NonProj,0.04,block2,35,29
2,8819,damp,is_amused,is_amused,projective,C,0.11,block2,35,30
2,4382,cupcakes,MC3,MC,projective,NonProj,0.11,block2,35,31
2,4158,zoo,saw,saw,projective,C,0.86,block2,35,32
2,11693,yoga,found_out,found_out,projective,C,0.8,block2,35,33
2,6134,poem,noticed,noticed,projective,C,0.81,block2,35,34
2,2937,picture,MC1,MC,projective,NonProj,0.1,block2,35,35
2,5280,hat,MC6,MC,projective,NonProj,0.12,block2,35,36
2,4277,frisbee,learned,learned,projective,C,0.81,block2,35,37
2,3031,purple,MC4,MC,projective,NonProj,0.12,block2,35,38
2,6382,pool,revealed,revealed,projective,C,0.87,block2,35,39
2,6514,dancing,is_aware,is_aware,projective,C,0.79,block2,35,40
3,6228,swing,found_out,found_out,projective,C,0.83,block1,25,1
3,3291,chili,MC3,MC,projective,NonProj,0.14,block1,25,2
3,4357,poodle,revealed,revealed,projective,C,0.83,block1,25,3
3,3460,nails,MC5,MC,projective,NonProj,0.02,block1,25,4
3,6170,damp,realize,realize,projective,C,0.84,block1,25,5
3,5366,ditch,is_amused,is_amused,projective,C,0.97,block1,25,6
3,6814,yoga,confessed,confessed,projective,C,0.35,block1,25,7
3,4773,garage,noticed,noticed,projective,C,0.76,block1,25,8
3,3561,bmw,MC1,MC,projective,NonProj,0.02,block1,25,9
3,5045,hat,learned,learned,projective,C,0.74,block1,25,10
3,5623,cupcakes,MC8,MC,projective,NonProj,0.01,block1,25,11
3,6996,dancing,saw,saw,projective,C,0.34,block1,25,12
3,3784,pool,is_annoyed,is_annoyed,projective,C,0.78,block1,25,13
3,4972,poem,discovered,discovered,projective,C,0.77,block1,25,14
3,2894,tea,MC6,MC,projective,NonProj,0.02,block1,25,15
3,3161,frisbee,MC2,MC,projective,NonProj,0.02,block1,25,16
3,4647,picture,established,established,projective,C,0.21,block1,25,17
3,4522,horse,MC7,MC,projective,NonProj,0,block1,25,18
3,2811,purple,MC4,MC,projective,NonProj,0.01,block1,25,19
3,9436,zoo,is_aware,is_aware,projective,C,0.75,block1,25,20
3,6935,yoga,confessed,confessed,ai,C,0.96,block2,25,21
3,3364,cupcakes,MC8,MC,ai,NonProj,0.05,block2,25,22
3,3500,poem,discovered,discovered,ai,C,0.95,block2,25,23
3,2239,tea,MC6,MC,ai,NonProj,0.02,block2,25,24
3,3255,hat,learned,learned,ai,C,0.98,block2,25,25
3,3310,swing,found_out,found_out,ai,C,1,block2,25,26
3,4693,dancing,saw,saw,ai,C,0.33,block2,25,27
3,4305,garage,noticed,noticed,ai,C,0.84,block2,25,28
3,2431,chili,MC3,MC,ai,NonProj,0.02,block2,25,29
3,2226,nails,MC5,MC,ai,NonProj,0.02,block2,25,30
3,3470,ditch,is_amused,is_amused,ai,C,0.87,block2,25,31
3,2366,zoo,is_aware,is_aware,ai,C,0.98,block2,25,32
3,2188,horse,MC7,MC,ai,NonProj,0.02,block2,25,33
3,2382,frisbee,MC2,MC,ai,NonProj,0.02,block2,25,34
3,2673,bmw,MC1,MC,ai,NonProj,0.01,block2,25,35
3,3583,damp,realize,realize,ai,C,0.83,block2,25,36
3,4577,picture,established,established,ai,C,0.48,block2,25,37
3,5243,poodle,revealed,revealed,ai,C,0.49,block2,25,38
3,2536,purple,MC4,MC,ai,NonProj,0.02,block2,25,39
3,2676,pool,is_annoyed,is_annoyed,ai,C,0.98,block2,25,40
4,5150,swing,MC5,MC,ai,NonProj,0.02,block1,40,1
4,3633,pool,MC4,MC,ai,NonProj,0.02,block1,40,2
4,6465,tea,found_out,found_out,ai,C,0.88,block1,40,3
4,4268,zoo,revealed,revealed,ai,C,0.83,block1,40,4
4,4849,picture,established,established,ai,C,0.84,block1,40,5
4,5119,bmw,saw,saw,ai,C,0.83,block1,40,6
4,4463,frisbee,MC2,MC,ai,NonProj,0.04,block1,40,7
4,4669,chili,is_amused,is_amused,ai,C,0.92,block1,40,8
4,4183,poem,MC6,MC,ai,NonProj,0.07,block1,40,9
4,2983,purple,MC8,MC,ai,NonProj,0.0600000000000001,block1,40,10
4,4834,ditch,realize,realize,ai,C,0.92,block1,40,11
4,3866,cupcakes,noticed,noticed,ai,C,0.94,block1,40,12
4,3914,damp,MC3,MC,ai,NonProj,0.08,block1,40,13
4,4585,hat,learned,learned,ai,C,0.91,block1,40,14
4,3666,poodle,is_annoyed,is_annoyed,ai,C,0.97,block1,40,15
4,5232,horse,is_aware,is_aware,ai,C,0.89,block1,40,16
4,3767,nails,confessed,confessed,ai,C,0.89,block1,40,17
4,4403,yoga,discovered,discovered,ai,C,0.92,block1,40,18
4,2865,garage,MC1,MC,ai,NonProj,0.04,block1,40,19
4,2198,dancing,MC7,MC,ai,NonProj,0.0600000000000001,block1,40,20
4,3718,dancing,MC7,MC,projective,NonProj,0.13,block2,40,21
4,5149,bmw,saw,saw,projective,C,0.84,block2,40,22
4,3149,nails,confessed,confessed,projective,C,0.84,block2,40,23
4,2487,zoo,revealed,revealed,projective,C,0.85,block2,40,24
4,3065,horse,is_aware,is_aware,projective,C,0.88,block2,40,25
4,2746,ditch,realize,realize,projective,C,0.88,block2,40,26
4,3185,cupcakes,noticed,noticed,projective,C,0.87,block2,40,27
4,2916,purple,MC8,MC,projective,NonProj,0.08,block2,40,28
4,1534,pool,MC4,MC,projective,NonProj,0.07,block2,40,29
4,3365,yoga,discovered,discovered,projective,C,0.86,block2,40,30
4,3003,poem,MC6,MC,projective,NonProj,0.06,block2,40,31
4,2231,damp,MC3,MC,projective,NonProj,0.06,block2,40,32
4,2502,garage,MC1,MC,projective,NonProj,0.09,block2,40,33
4,1915,swing,MC5,MC,projective,NonProj,0.07,block2,40,34
4,3416,poodle,is_annoyed,is_annoyed,projective,C,0.81,block2,40,35
4,3652,frisbee,MC2,MC,projective,NonProj,0.07,block2,40,36
4,3431,tea,found_out,found_out,projective,C,0.85,block2,40,37
4,2433,hat,learned,learned,projective,C,0.88,block2,40,38
4,2649,chili,is_amused,is_amused,projective,C,0.86,block2,40,39
4,2052,picture,established,established,projective,C,0.86,block2,40,40
5,11716,tea,established,established,ai,C,0.03,block1,38,1
5,4131,pool,MC3,MC,ai,NonProj,0.01,block1,38,2
5,5402,poodle,discovered,discovered,ai,C,0.02,block1,38,3
5,5448,swing,MC7,MC,ai,NonProj,0.01,block1,38,4
5,5167,frisbee,MC5,MC,ai,NonProj,0.01,block1,38,5
5,4735,dancing,confessed,confessed,ai,C,0.97,block1,38,6
5,5682,damp,revealed,revealed,ai,C,0.97,block1,38,7
5,4564,purple,is_amused,is_amused,ai,C,0.96,block1,38,8
5,5267,picture,learned,learned,ai,C,0.99,block1,38,9
5,3369,hat,MC1,MC,ai,NonProj,0.02,block1,38,10
5,5481,poem,is_aware,is_aware,ai,C,0.97,block1,38,11
5,2869,nails,MC4,MC,ai,NonProj,0.01,block1,38,12
5,5782,ditch,is_annoyed,is_annoyed,ai,C,0.99,block1,38,13
5,5083,horse,MC6,MC,ai,NonProj,0.02,block1,38,14
5,4033,yoga,noticed,noticed,ai,C,0.99,block1,38,15
5,2668,chili,MC2,MC,ai,NonProj,0,block1,38,16
5,4681,cupcakes,found_out,found_out,ai,C,0.98,block1,38,17
5,3749,zoo,saw,saw,ai,C,0.99,block1,38,18
5,4650,bmw,MC8,MC,ai,NonProj,0.02,block1,38,19
5,3468,garage,realize,realize,ai,C,0.98,block1,38,20
5,4567,horse,MC6,MC,projective,NonProj,0.01,block2,38,21
5,4371,garage,realize,realize,projective,C,0.98,block2,38,22
5,4881,damp,revealed,revealed,projective,C,0.98,block2,38,23
5,3188,frisbee,MC5,MC,projective,NonProj,0.02,block2,38,24
5,5561,bmw,MC8,MC,projective,NonProj,0.02,block2,38,25
5,2567,nails,MC4,MC,projective,NonProj,0.02,block2,38,26
5,3984,zoo,saw,saw,projective,C,0.97,block2,38,27
5,4700,ditch,is_annoyed,is_annoyed,projective,C,0.97,block2,38,28
5,4649,yoga,noticed,noticed,projective,C,0.98,block2,38,29
5,3414,dancing,confessed,confessed,projective,C,1,block2,38,30
5,6635,tea,established,established,projective,C,0.02,block2,38,31
5,4099,pool,MC3,MC,projective,NonProj,0.01,block2,38,32
5,3184,hat,MC1,MC,projective,NonProj,0.01,block2,38,33
5,4135,poodle,discovered,discovered,projective,C,0.98,block2,38,34
5,2897,chili,MC2,MC,projective,NonProj,0.02,block2,38,35
5,3368,purple,is_amused,is_amused,projective,C,0.98,block2,38,36
5,4352,poem,is_aware,is_aware,projective,C,0.98,block2,38,37
5,3216,swing,MC7,MC,projective,NonProj,0.01,block2,38,38
5,4314,picture,learned,learned,projective,C,0.98,block2,38,39
5,3144,cupcakes,found_out,found_out,projective,C,0.99,block2,38,40
6,8718,horse,MC5,MC,projective,NonProj,0.12,block1,34,1
6,9720,tea,MC7,MC,projective,NonProj,0.04,block1,34,2
6,5714,purple,is_annoyed,is_annoyed,projective,C,0.92,block1,34,3
6,5880,bmw,MC1,MC,projective,NonProj,0.04,block1,34,4
6,5784,dancing,is_amused,is_amused,projective,C,0.94,block1,34,5
6,5387,pool,MC6,MC,projective,NonProj,0.05,block1,34,6
6,6142,damp,discovered,discovered,projective,C,0.87,block1,34,7
6,9333,ditch,confessed,confessed,projective,C,0.76,block1,34,8
6,5110,cupcakes,found_out,found_out,projective,C,0.95,block1,34,9
6,4832,yoga,MC8,MC,projective,NonProj,0,block1,34,10
6,4157,zoo,revealed,revealed,projective,C,0.9,block1,34,11
6,4189,nails,is_aware,is_aware,projective,C,0.94,block1,34,12
6,6635,frisbee,MC2,MC,projective,NonProj,0.05,block1,34,13
6,5285,swing,learned,learned,projective,C,0.93,block1,34,14
6,6547,chili,MC4,MC,projective,NonProj,0.04,block1,34,15
6,5641,poodle,noticed,noticed,projective,C,0.92,block1,34,16
6,8317,poem,established,established,projective,C,0.17,block1,34,17
6,4086,hat,MC3,MC,projective,NonProj,0.05,block1,34,18
6,4976,garage,realize,realize,projective,C,0.93,block1,34,19
6,4674,picture,saw,saw,projective,C,0.83,block1,34,20
6,5879,poodle,noticed,noticed,ai,C,0.94,block2,34,21
6,4553,tea,MC7,MC,ai,NonProj,0,block2,34,22
6,3246,chili,MC4,MC,ai,NonProj,0,block2,34,23
6,2690,pool,MC6,MC,ai,NonProj,0,block2,34,24
6,3278,yoga,MC8,MC,ai,NonProj,0,block2,34,25
6,7293,ditch,confessed,confessed,ai,C,0.93,block2,34,26
6,2444,hat,MC3,MC,ai,NonProj,0,block2,34,27
6,3786,purple,is_annoyed,is_annoyed,ai,C,0.96,block2,34,28
6,6166,poem,established,established,ai,C,0.36,block2,34,29
6,7705,swing,learned,learned,ai,C,0.87,block2,34,30
6,4648,garage,realize,realize,ai,C,0.96,block2,34,31
6,3334,frisbee,MC2,MC,ai,NonProj,0,block2,34,32
6,3380,bmw,MC1,MC,ai,NonProj,0,block2,34,33
6,2721,horse,MC5,MC,ai,NonProj,0,block2,34,34
6,3913,zoo,revealed,revealed,ai,C,0.96,block2,34,35
6,6434,damp,discovered,discovered,ai,C,0.91,block2,34,36
6,5586,dancing,is_amused,is_amused,ai,C,0.93,block2,34,37
6,7809,cupcakes,found_out,found_out,ai,C,0.94,block2,34,38
6,5634,picture,saw,saw,ai,C,0.93,block2,34,39
6,4221,nails,is_aware,is_aware,ai,C,0.96,block2,34,40
7,6426,zoo,MC1,MC,ai,NonProj,0,block1,39,1
7,8864,damp,saw,saw,ai,C,1,block1,39,2
7,6008,frisbee,MC7,MC,ai,NonProj,0.02,block1,39,3
7,6449,picture,MC3,MC,ai,NonProj,0.03,block1,39,4
7,6862,chili,found_out,found_out,ai,C,0.98,block1,39,5
7,7559,bmw,learned,learned,ai,C,1,block1,39,6
7,5488,dancing,MC2,MC,ai,NonProj,0.02,block1,39,7
7,6152,swing,discovered,discovered,ai,C,0.98,block1,39,8
7,5113,purple,MC4,MC,ai,NonProj,0.02,block1,39,9
7,5302,pool,realize,realize,ai,C,1,block1,39,10
7,6584,horse,established,established,ai,C,1,block1,39,11
7,3310,hat,MC8,MC,ai,NonProj,0.01,block1,39,12
7,5150,yoga,MC6,MC,ai,NonProj,0.02,block1,39,13
7,10017,nails,is_annoyed,is_annoyed,ai,C,0.98,block1,39,14
7,7872,tea,confessed,confessed,ai,C,1,block1,39,15
7,5895,poodle,MC5,MC,ai,NonProj,0.01,block1,39,16
7,7183,cupcakes,revealed,revealed,ai,C,0.99,block1,39,17
7,4919,poem,is_aware,is_aware,ai,C,0.99,block1,39,18
7,6072,ditch,noticed,noticed,ai,C,0.98,block1,39,19
7,5144,garage,is_amused,is_amused,ai,C,0.98,block1,39,20
7,8740,swing,discovered,discovered,projective,C,0.98,block2,39,21
7,3640,purple,MC4,MC,projective,NonProj,0,block2,39,22
7,7464,chili,found_out,found_out,projective,C,1,block2,39,23
7,5649,cupcakes,revealed,revealed,projective,C,0.98,block2,39,24
7,3256,dancing,MC2,MC,projective,NonProj,0.01,block2,39,25
7,3111,yoga,MC6,MC,projective,NonProj,0.02,block2,39,26
7,5360,garage,is_amused,is_amused,projective,C,0.97,block2,39,27
7,5789,tea,confessed,confessed,projective,C,0.99,block2,39,28
7,6129,ditch,noticed,noticed,projective,C,0.97,block2,39,29
7,9127,pool,realize,realize,projective,C,0.97,block2,39,30
7,3871,zoo,MC1,MC,projective,NonProj,0.02,block2,39,31
7,4369,poodle,MC5,MC,projective,NonProj,0.01,block2,39,32
7,4583,damp,saw,saw,projective,C,0.98,block2,39,33
7,3596,frisbee,MC7,MC,projective,NonProj,0.01,block2,39,34
7,4219,picture,MC3,MC,projective,NonProj,0,block2,39,35
7,4223,nails,is_annoyed,is_annoyed,projective,C,0.98,block2,39,36
7,12329,horse,established,established,projective,C,0.98,block2,39,37
7,4935,hat,MC8,MC,projective,NonProj,0,block2,39,38
7,5376,poem,is_aware,is_aware,projective,C,0.99,block2,39,39
7,4665,bmw,learned,learned,projective,C,0.98,block2,39,40
8,6946,zoo,is_annoyed,is_annoyed,ai,C,1,block1,22,1
8,6352,swing,established,established,ai,C,1,block1,22,2
8,4015,damp,MC6,MC,ai,NonProj,0,block1,22,3
8,4461,chili,MC7,MC,ai,NonProj,0,block1,22,4
8,2911,tea,MC4,MC,ai,NonProj,0,block1,22,5
8,2870,dancing,MC1,MC,ai,NonProj,0,block1,22,6
8,7419,yoga,revealed,revealed,ai,C,1,block1,22,7
8,4173,picture,learned,learned,ai,C,1,block1,22,8
8,3786,nails,MC5,MC,ai,NonProj,0,block1,22,9
8,33129,purple,confessed,confessed,ai,C,1,block1,22,10
8,3718,bmw,realize,realize,ai,C,1,block1,22,11
8,4566,ditch,noticed,noticed,ai,C,1,block1,22,12
8,3622,poem,is_aware,is_aware,ai,C,1,block1,22,13
8,3430,frisbee,MC3,MC,ai,NonProj,0,block1,22,14
8,3377,cupcakes,MC8,MC,ai,NonProj,0,block1,22,15
8,4943,garage,discovered,discovered,ai,C,1,block1,22,16
8,4203,poodle,saw,saw,ai,C,1,block1,22,17
8,5603,pool,found_out,found_out,ai,C,1,block1,22,18
8,2888,horse,is_amused,is_amused,ai,C,1,block1,22,19
8,2370,hat,MC2,MC,ai,NonProj,0,block1,22,20
8,7929,yoga,revealed,revealed,projective,C,0,block2,22,21
8,4260,poem,is_aware,is_aware,projective,C,1,block2,22,22
8,2781,garage,discovered,discovered,projective,C,1,block2,22,23
8,3310,chili,MC7,MC,projective,NonProj,0,block2,22,24
8,12373,cupcakes,MC8,MC,projective,NonProj,0,block2,22,25
8,4919,purple,confessed,confessed,projective,C,0.49,block2,22,26
8,5313,horse,is_amused,is_amused,projective,C,1,block2,22,27
8,3880,pool,found_out,found_out,projective,C,1,block2,22,28
8,2799,ditch,noticed,noticed,projective,C,1,block2,22,29
8,4642,bmw,realize,realize,projective,C,1,block2,22,30
8,3375,dancing,MC1,MC,projective,NonProj,0,block2,22,31
8,5370,swing,established,established,projective,C,0.48,block2,22,32
8,4205,picture,learned,learned,projective,C,1,block2,22,33
8,3431,poodle,saw,saw,projective,C,1,block2,22,34
8,2624,nails,MC5,MC,projective,NonProj,0,block2,22,35
8,3351,zoo,is_annoyed,is_annoyed,projective,C,1,block2,22,36
8,2496,damp,MC6,MC,projective,NonProj,0,block2,22,37
8,22817,frisbee,MC3,MC,projective,NonProj,0,block2,22,38
8,2348,hat,MC2,MC,projective,NonProj,0,block2,22,39
8,1895,tea,MC4,MC,projective,NonProj,0,block2,22,40
9,13776,swing,discovered,discovered,ai,C,1,block1,28,1
9,9768,dancing,learned,learned,ai,C,1,block1,28,2
9,6303,zoo,realize,realize,ai,C,1,block1,28,3
9,5961,bmw,is_annoyed,is_annoyed,ai,C,1,block1,28,4
9,7704,tea,MC8,MC,ai,NonProj,0,block1,28,5
9,5042,cupcakes,confessed,confessed,ai,C,1,block1,28,6
9,7746,poodle,is_aware,is_aware,ai,C,1,block1,28,7
9,5199,pool,MC1,MC,ai,NonProj,0,block1,28,8
9,4859,purple,is_amused,is_amused,ai,C,1,block1,28,9
9,4669,chili,MC4,MC,ai,NonProj,0,block1,28,10
9,5318,picture,MC5,MC,ai,NonProj,0,block1,28,11
9,3824,frisbee,found_out,found_out,ai,C,1,block1,28,12
9,2929,yoga,MC7,MC,ai,NonProj,0,block1,28,13
9,4762,garage,saw,saw,ai,C,1,block1,28,14
9,4916,nails,established,established,ai,C,1,block1,28,15
9,5028,poem,MC3,MC,ai,NonProj,0,block1,28,16
9,3115,hat,MC2,MC,ai,NonProj,0,block1,28,17
9,4423,damp,noticed,noticed,ai,C,1,block1,28,18
9,3548,ditch,revealed,revealed,ai,C,1,block1,28,19
9,3976,horse,MC6,MC,ai,NonProj,0,block1,28,20
9,6738,pool,MC1,MC,projective,NonProj,0,block2,28,21
9,4770,purple,is_amused,is_amused,projective,C,1,block2,28,22
9,5446,poodle,is_aware,is_aware,projective,C,1,block2,28,23
9,11288,nails,established,established,projective,C,0.33,block2,28,24
9,14585,cupcakes,confessed,confessed,projective,C,0.3,block2,28,25
9,6505,ditch,revealed,revealed,projective,C,1,block2,28,26
9,4266,picture,MC5,MC,projective,NonProj,0,block2,28,27
9,5344,damp,noticed,noticed,projective,C,1,block2,28,28
9,4084,dancing,learned,learned,projective,C,1,block2,28,29
9,4709,bmw,is_annoyed,is_annoyed,projective,C,1,block2,28,30
9,2828,chili,MC4,MC,projective,NonProj,0,block2,28,31
9,4109,garage,saw,saw,projective,C,1,block2,28,32
9,2456,horse,MC6,MC,projective,NonProj,0,block2,28,33
9,3345,yoga,MC7,MC,projective,NonProj,0,block2,28,34
9,8862,poem,MC3,MC,projective,NonProj,0,block2,28,35
9,4368,frisbee,found_out,found_out,projective,C,1,block2,28,36
9,5229,swing,discovered,discovered,projective,C,0.77,block2,28,37
9,4012,zoo,realize,realize,projective,C,1,block2,28,38
9,2093,tea,MC8,MC,projective,NonProj,0,block2,28,39
9,2872,hat,MC2,MC,projective,NonProj,0,block2,28,40
10,9232,horse,found_out,found_out,ai,C,1,block1,27,1
10,8721,poem,discovered,discovered,ai,C,1,block1,27,2
10,5782,cupcakes,is_annoyed,is_annoyed,ai,C,0.99,block1,27,3
10,9084,yoga,established,established,ai,C,0.01,block1,27,4
10,8222,pool,revealed,revealed,ai,C,1,block1,27,5
10,4055,hat,MC7,MC,ai,NonProj,0,block1,27,6
10,4894,tea,realize,realize,ai,C,1,block1,27,7
10,5607,chili,is_amused,is_amused,ai,C,1,block1,27,8
10,2617,zoo,MC1,MC,ai,NonProj,0,block1,27,9
10,2953,frisbee,MC4,MC,ai,NonProj,0,block1,27,10
10,6939,bmw,learned,learned,ai,C,1,block1,27,11
10,3543,nails,MC2,MC,ai,NonProj,0,block1,27,12
10,4213,damp,MC6,MC,ai,NonProj,0,block1,27,13
10,2774,poodle,MC3,MC,ai,NonProj,0,block1,27,14
10,5123,picture,noticed,noticed,ai,C,1,block1,27,15
10,3449,swing,MC8,MC,ai,NonProj,0,block1,27,16
10,3850,ditch,is_aware,is_aware,ai,C,1,block1,27,17
10,2802,garage,confessed,confessed,ai,C,1,block1,27,18
10,2816,purple,saw,saw,ai,C,1,block1,27,19
10,2178,dancing,MC5,MC,ai,NonProj,0,block1,27,20
10,4239,dancing,MC5,MC,projective,NonProj,0,block2,27,21
10,3752,ditch,is_aware,is_aware,projective,C,1,block2,27,22
10,2714,pool,revealed,revealed,projective,C,1,block2,27,23
10,2558,tea,realize,realize,projective,C,1,block2,27,24
10,2044,poodle,MC3,MC,projective,NonProj,0,block2,27,25
10,3960,picture,noticed,noticed,projective,C,1,block2,27,26
10,2945,cupcakes,is_annoyed,is_annoyed,projective,C,1,block2,27,27
10,3086,yoga,established,established,projective,C,1,block2,27,28
10,2371,chili,is_amused,is_amused,projective,C,1,block2,27,29
10,2937,purple,saw,saw,projective,C,1,block2,27,30
10,3152,bmw,learned,learned,projective,C,1,block2,27,31
10,2099,nails,MC2,MC,projective,NonProj,0,block2,27,32
10,1651,zoo,MC1,MC,projective,NonProj,0,block2,27,33
10,1512,hat,MC7,MC,projective,NonProj,0,block2,27,34
10,2820,frisbee,MC4,MC,projective,NonProj,0,block2,27,35
10,2538,swing,MC8,MC,projective,NonProj,0,block2,27,36
10,2415,horse,found_out,found_out,projective,C,1,block2,27,37
10,1898,poem,discovered,discovered,projective,C,1,block2,27,38
10,1730,garage,confessed,confessed,projective,C,1,block2,27,39
10,2005,damp,MC6,MC,projective,NonProj,0,block2,27,40
11,9851,cupcakes,MC3,MC,ai,NonProj,0,block1,27,1
11,4420,poodle,is_amused,is_amused,ai,C,1,block1,27,2
11,4597,frisbee,learned,learned,ai,C,1,block1,27,3
11,6317,damp,realize,realize,ai,C,1,block1,27,4
11,4786,picture,found_out,found_out,ai,C,1,block1,27,5
11,8456,dancing,is_annoyed,is_annoyed,ai,C,1,block1,27,6
11,4635,chili,saw,saw,ai,C,1,block1,27,7
11,5899,horse,MC7,MC,ai,NonProj,0,block1,27,8
11,4518,poem,MC1,MC,ai,NonProj,0,block1,27,9
11,7865,tea,confessed,confessed,ai,C,1,block1,27,10
11,15354,swing,MC5,MC,ai,NonProj,0,block1,27,11
11,4658,garage,discovered,discovered,ai,C,1,block1,27,12
11,4221,hat,MC6,MC,ai,NonProj,0,block1,27,13
11,4418,bmw,MC4,MC,ai,NonProj,0,block1,27,14
11,3617,zoo,noticed,noticed,ai,C,1,block1,27,15
11,4252,nails,is_aware,is_aware,ai,C,1,block1,27,16
11,4602,yoga,MC2,MC,ai,NonProj,0,block1,27,17
11,4356,pool,revealed,revealed,ai,C,1,block1,27,18
11,14875,ditch,established,established,ai,C,0.24,block1,27,19
11,2682,purple,MC8,MC,ai,NonProj,0,block1,27,20
11,8348,dancing,is_annoyed,is_annoyed,projective,C,1,block2,27,21
11,6749,damp,realize,realize,projective,C,1,block2,27,22
11,4106,nails,is_aware,is_aware,projective,C,1,block2,27,23
11,4069,ditch,established,established,projective,C,0.14,block2,27,24
11,5920,poodle,is_amused,is_amused,projective,C,1,block2,27,25
11,3467,purple,MC8,MC,projective,NonProj,0,block2,27,26
11,3287,cupcakes,MC3,MC,projective,NonProj,0,block2,27,27
11,6799,picture,found_out,found_out,projective,C,1,block2,27,28
11,3150,hat,MC6,MC,projective,NonProj,0,block2,27,29
11,2997,bmw,MC4,MC,projective,NonProj,0,block2,27,30
11,3034,yoga,MC2,MC,projective,NonProj,0,block2,27,31
11,4033,zoo,noticed,noticed,projective,C,1,block2,27,32
11,5216,chili,saw,saw,projective,C,1,block2,27,33
11,3785,garage,discovered,discovered,projective,C,1,block2,27,34
11,3784,frisbee,learned,learned,projective,C,1,block2,27,35
11,4181,poem,MC1,MC,projective,NonProj,0,block2,27,36
11,7316,tea,confessed,confessed,projective,C,1,block2,27,37
11,3738,pool,revealed,revealed,projective,C,1,block2,27,38
11,3135,horse,MC7,MC,projective,NonProj,0,block2,27,39
11,3965,swing,MC5,MC,projective,NonProj,0,block2,27,40
12,5894,swing,MC1,MC,projective,NonProj,0.1,block1,31,1
12,3132,yoga,discovered,discovered,projective,C,0.86,block1,31,2
12,2812,poem,found_out,found_out,projective,C,0.8,block1,31,3
12,3389,damp,realize,realize,projective,C,0.86,block1,31,4
12,3708,tea,MC2,MC,projective,NonProj,0.16,block1,31,5
12,2753,pool,MC6,MC,projective,NonProj,0.19,block1,31,6
12,2398,poodle,is_aware,is_aware,projective,C,0.78,block1,31,7
12,2188,purple,MC8,MC,projective,NonProj,0.14,block1,31,8
12,4662,nails,MC4,MC,projective,NonProj,0.09,block1,31,9
12,5103,bmw,saw,saw,projective,C,0.78,block1,31,10
12,5092,ditch,is_annoyed,is_annoyed,projective,C,0.85,block1,31,11
12,3374,picture,MC7,MC,projective,NonProj,0.15,block1,31,12
12,2825,hat,MC3,MC,projective,NonProj,0.14,block1,31,13
12,2693,horse,MC5,MC,projective,NonProj,0.11,block1,31,14
12,2715,garage,is_amused,is_amused,projective,C,0.75,block1,31,15
12,3824,cupcakes,confessed,confessed,projective,C,0.8,block1,31,16
12,5737,frisbee,noticed,noticed,projective,C,0.76,block1,31,17
12,3547,dancing,learned,learned,projective,C,0.79,block1,31,18
12,2054,zoo,revealed,revealed,projective,C,0.78,block1,31,19
12,5308,chili,established,established,projective,C,0.72,block1,31,20
12,9183,garage,is_amused,is_amused,ai,C,0.33,block2,31,21
12,3206,picture,MC7,MC,ai,NonProj,0.81,block2,31,22
12,2397,pool,MC6,MC,ai,NonProj,0.77,block2,31,23
12,2387,damp,realize,realize,ai,C,0.28,block2,31,24
12,2531,dancing,learned,learned,ai,C,0.25,block2,31,25
12,32854,bmw,saw,saw,ai,C,0.56,block2,31,26
12,4273,tea,MC2,MC,ai,NonProj,0.12,block2,31,27
12,3677,poem,found_out,found_out,ai,C,0.83,block2,31,28
12,3633,purple,MC8,MC,ai,NonProj,0.11,block2,31,29
12,2802,hat,MC3,MC,ai,NonProj,0.13,block2,31,30
12,3681,poodle,is_aware,is_aware,ai,C,0.83,block2,31,31
12,3558,nails,MC4,MC,ai,NonProj,0.0600000000000001,block2,31,32
12,3548,swing,MC1,MC,ai,NonProj,0.12,block2,31,33
12,12530,zoo,revealed,revealed,ai,C,0.85,block2,31,34
12,10154,cupcakes,confessed,confessed,ai,C,0.87,block2,31,35
12,20791,yoga,discovered,discovered,ai,C,0.91,block2,31,36
12,7229,horse,MC5,MC,ai,NonProj,0.11,block2,31,37
12,4215,frisbee,noticed,noticed,ai,C,0.94,block2,31,38
12,5695,ditch,is_annoyed,is_annoyed,ai,C,0.79,block2,31,39
12,12076,chili,established,established,ai,C,0.51,block2,31,40
13,17800,pool,found_out,found_out,ai,C,1,block1,26,1
13,6864,yoga,MC8,MC,ai,NonProj,0,block1,26,2
13,3896,poodle,is_aware,is_aware,ai,C,1,block1,26,3
13,4232,swing,MC1,MC,ai,NonProj,0,block1,26,4
13,6136,poem,noticed,noticed,ai,C,1,block1,26,5
13,3910,zoo,MC6,MC,ai,NonProj,0.01,block1,26,6
13,4537,ditch,saw,saw,ai,C,0.99,block1,26,7
13,8537,damp,is_amused,is_amused,ai,C,0.99,block1,26,8
13,4176,tea,revealed,revealed,ai,C,0.99,block1,26,9
13,3462,hat,MC3,MC,ai,NonProj,0.01,block1,26,10
13,9186,cupcakes,established,established,ai,C,0.7,block1,26,11
13,4264,frisbee,is_annoyed,is_annoyed,ai,C,0.99,block1,26,12
13,5808,picture,discovered,discovered,ai,C,0.99,block1,26,13
13,4760,nails,MC2,MC,ai,NonProj,0,block1,26,14
13,3336,purple,MC5,MC,ai,NonProj,0.02,block1,26,15
13,3328,horse,MC7,MC,ai,NonProj,0.02,block1,26,16
13,5199,bmw,realize,realize,ai,C,0.01,block1,26,17
13,3272,chili,MC4,MC,ai,NonProj,0.01,block1,26,18
13,9913,dancing,confessed,confessed,ai,C,1,block1,26,19
13,4944,garage,learned,learned,ai,C,0.98,block1,26,20
13,5672,hat,MC3,MC,projective,NonProj,0.01,block2,26,21
13,3336,yoga,MC8,MC,projective,NonProj,0.01,block2,26,22
13,3608,nails,MC2,MC,projective,NonProj,0.01,block2,26,23
13,3689,tea,revealed,revealed,projective,C,1,block2,26,24
13,7343,poodle,is_aware,is_aware,projective,C,0.99,block2,26,25
13,8232,picture,discovered,discovered,projective,C,0.99,block2,26,26
13,4365,purple,MC5,MC,projective,NonProj,0.02,block2,26,27
13,5723,bmw,realize,realize,projective,C,0.99,block2,26,28
13,3248,poem,noticed,noticed,projective,C,0.99,block2,26,29
13,3928,zoo,MC6,MC,projective,NonProj,0,block2,26,30
13,9527,frisbee,is_annoyed,is_annoyed,projective,C,0.98,block2,26,31
13,7145,ditch,saw,saw,projective,C,0.98,block2,26,32
13,6536,pool,found_out,found_out,projective,C,1,block2,26,33
13,3824,swing,MC1,MC,projective,NonProj,0.02,block2,26,34
13,6144,garage,learned,learned,projective,C,0.98,block2,26,35
13,5408,dancing,confessed,confessed,projective,C,0.98,block2,26,36
13,3544,damp,is_amused,is_amused,projective,C,0.98,block2,26,37
13,3512,chili,MC4,MC,projective,NonProj,0.01,block2,26,38
13,8865,cupcakes,established,established,projective,C,0.2,block2,26,39
13,11559,horse,MC7,MC,projective,NonProj,0,block2,26,40
14,6083,horse,MC5,MC,ai,NonProj,0.02,block1,22,1
14,3736,dancing,MC1,MC,ai,NonProj,0.02,block1,22,2
14,7944,poem,discovered,discovered,ai,C,1,block1,22,3
14,5355,garage,is_amused,is_amused,ai,C,0.99,block1,22,4
14,4345,pool,noticed,noticed,ai,C,1,block1,22,5
14,6452,hat,revealed,revealed,ai,C,0.98,block1,22,6
14,3425,poodle,MC4,MC,ai,NonProj,0,block1,22,7
14,5465,bmw,is_annoyed,is_annoyed,ai,C,0.99,block1,22,8
14,6699,zoo,established,established,ai,C,1,block1,22,9
14,5815,picture,MC7,MC,ai,NonProj,0.01,block1,22,10
14,5654,frisbee,saw,saw,ai,C,1,block1,22,11
14,8288,cupcakes,MC6,MC,ai,NonProj,0,block1,22,12
14,6820,ditch,MC8,MC,ai,NonProj,0,block1,22,13
14,3590,nails,MC3,MC,ai,NonProj,0.03,block1,22,14
14,4876,yoga,MC2,MC,ai,NonProj,0,block1,22,15
14,5539,purple,found_out,found_out,ai,C,1,block1,22,16
14,7368,chili,learned,learned,ai,C,1,block1,22,17
14,6938,tea,confessed,confessed,ai,C,1,block1,22,18
14,5763,damp,realize,realize,ai,C,1,block1,22,19
14,6946,swing,is_aware,is_aware,ai,C,1,block1,22,20
14,5173,poodle,MC4,MC,projective,NonProj,0,block2,22,21
14,5059,bmw,is_annoyed,is_annoyed,projective,C,1,block2,22,22
14,3919,chili,learned,learned,projective,C,1,block2,22,23
14,6689,yoga,MC2,MC,projective,NonProj,0.15,block2,22,24
14,4764,horse,MC5,MC,projective,NonProj,0.09,block2,22,25
14,6236,zoo,established,established,projective,C,0.39,block2,22,26
14,3754,picture,MC7,MC,projective,NonProj,0.16,block2,22,27
14,5359,nails,MC3,MC,projective,NonProj,0.26,block2,22,28
14,3869,dancing,MC1,MC,projective,NonProj,0.07,block2,22,29
14,5012,tea,confessed,confessed,projective,C,0.63,block2,22,30
14,4939,poem,discovered,discovered,projective,C,1,block2,22,31
14,5847,swing,is_aware,is_aware,projective,C,1,block2,22,32
14,7202,hat,revealed,revealed,projective,C,0.99,block2,22,33
14,4519,pool,noticed,noticed,projective,C,0.99,block2,22,34
14,5805,garage,is_amused,is_amused,projective,C,0.89,block2,22,35
14,5562,purple,found_out,found_out,projective,C,0.99,block2,22,36
14,4442,cupcakes,MC6,MC,projective,NonProj,0.13,block2,22,37
14,4984,damp,realize,realize,projective,C,0.88,block2,22,38
14,4589,ditch,MC8,MC,projective,NonProj,0.16,block2,22,39
14,4987,frisbee,saw,saw,projective,C,0.82,block2,22,40
15,17140,picture,confessed,confessed,ai,C,1,block1,23,1
15,9865,poem,MC1,MC,ai,NonProj,0,block1,23,2
15,8590,nails,found_out,found_out,ai,C,0.29,block1,23,3
15,5669,pool,is_amused,is_amused,ai,C,1,block1,23,4
15,7096,swing,MC4,MC,ai,NonProj,0,block1,23,5
15,6000,damp,MC6,MC,ai,NonProj,0.02,block1,23,6
15,6346,ditch,saw,saw,ai,C,1,block1,23,7
15,8796,purple,is_annoyed,is_annoyed,ai,C,0.84,block1,23,8
15,9691,frisbee,revealed,revealed,ai,C,0.98,block1,23,9
15,6322,tea,learned,learned,ai,C,0.98,block1,23,10
15,4333,poodle,MC7,MC,ai,NonProj,0.01,block1,23,11
15,5302,cupcakes,noticed,noticed,ai,C,0,block1,23,12
15,6774,garage,is_aware,is_aware,ai,C,1,block1,23,13
15,11090,zoo,established,established,ai,C,1,block1,23,14
15,3658,bmw,MC2,MC,ai,NonProj,0,block1,23,15
15,4023,hat,MC5,MC,ai,NonProj,0,block1,23,16
15,3369,yoga,MC3,MC,ai,NonProj,0,block1,23,17
15,4256,dancing,discovered,discovered,ai,C,1,block1,23,18
15,4394,chili,MC8,MC,ai,NonProj,0.01,block1,23,19
15,4943,horse,realize,realize,ai,C,0.98,block1,23,20
15,15112,picture,confessed,confessed,projective,C,0,block2,23,21
15,6096,hat,MC5,MC,projective,NonProj,1,block2,23,22
15,4963,yoga,MC3,MC,projective,NonProj,0,block2,23,23
15,5316,bmw,MC2,MC,projective,NonProj,0,block2,23,24
15,4758,tea,learned,learned,projective,C,1,block2,23,25
15,3147,garage,is_aware,is_aware,projective,C,1,block2,23,26
15,16552,zoo,established,established,projective,C,0.99,block2,23,27
15,7930,pool,is_amused,is_amused,projective,C,1,block2,23,28
15,7006,frisbee,revealed,revealed,projective,C,0.78,block2,23,29
15,4296,swing,MC4,MC,projective,NonProj,0.01,block2,23,30
15,7583,cupcakes,noticed,noticed,projective,C,1,block2,23,31
15,3733,poodle,MC7,MC,projective,NonProj,0,block2,23,32
15,3867,purple,is_annoyed,is_annoyed,projective,C,0.92,block2,23,33
15,5612,poem,MC1,MC,projective,NonProj,0.02,block2,23,34
15,4076,damp,MC6,MC,projective,NonProj,0.03,block2,23,35
15,4977,horse,realize,realize,projective,C,0.97,block2,23,36
15,5531,nails,found_out,found_out,projective,C,0.98,block2,23,37
15,3091,chili,MC8,MC,projective,NonProj,0.03,block2,23,38
15,4047,dancing,discovered,discovered,projective,C,1,block2,23,39
15,5068,ditch,saw,saw,projective,C,1,block2,23,40
17,8890,ditch,is_aware,is_aware,ai,C,0.97,block1,62,1
17,5492,swing,discovered,discovered,ai,C,0.94,block1,62,2
17,4965,poodle,MC8,MC,ai,NonProj,0.0600000000000001,block1,62,3
17,7947,hat,MC7,MC,ai,NonProj,0.0600000000000001,block1,62,4
17,9518,tea,established,established,ai,C,0.37,block1,62,5
17,4451,garage,MC5,MC,ai,NonProj,0.0600000000000001,block1,62,6
17,5278,frisbee,MC6,MC,ai,NonProj,0.09,block1,62,7
17,4218,chili,MC1,MC,ai,NonProj,0.07,block1,62,8
17,4900,bmw,MC3,MC,ai,NonProj,0.08,block1,62,9
17,7405,cupcakes,is_annoyed,is_annoyed,ai,C,0.91,block1,62,10
17,5413,picture,revealed,revealed,ai,C,0.9,block1,62,11
17,5016,horse,is_amused,is_amused,ai,C,0.89,block1,62,12
17,5234,yoga,noticed,noticed,ai,C,0.89,block1,62,13
17,6217,poem,learned,learned,ai,C,0.9,block1,62,14
17,5582,damp,found_out,found_out,ai,C,0.9,block1,62,15
17,4584,zoo,confessed,confessed,ai,C,0.9,block1,62,16
17,5171,dancing,realize,realize,ai,C,0.88,block1,62,17
17,4411,purple,MC4,MC,ai,NonProj,0.0600000000000001,block1,62,18
17,3750,pool,MC2,MC,ai,NonProj,0.0600000000000001,block1,62,19
17,7251,nails,saw,saw,ai,C,0.91,block1,62,20
17,6933,pool,MC2,MC,projective,NonProj,0.08,block2,62,21
17,5156,yoga,noticed,noticed,projective,C,0.9,block2,62,22
17,5695,poem,learned,learned,projective,C,0.9,block2,62,23
17,4031,poodle,MC8,MC,projective,NonProj,0.1,block2,62,24
17,4557,picture,revealed,revealed,projective,C,0.91,block2,62,25
17,3330,chili,MC1,MC,projective,NonProj,0.1,block2,62,26
17,4280,tea,established,established,projective,C,0.15,block2,62,27
17,5483,swing,discovered,discovered,projective,C,0.87,block2,62,28
17,4826,bmw,MC3,MC,projective,NonProj,0.13,block2,62,29
17,3446,hat,MC7,MC,projective,NonProj,0.12,block2,62,30
17,3929,garage,MC5,MC,projective,NonProj,0.11,block2,62,31
17,4932,horse,is_amused,is_amused,projective,C,0.86,block2,62,32
17,5238,dancing,realize,realize,projective,C,0.88,block2,62,33
17,4952,damp,found_out,found_out,projective,C,0.85,block2,62,34
17,3860,purple,MC4,MC,projective,NonProj,0.14,block2,62,35
17,4416,nails,saw,saw,projective,C,0.89,block2,62,36
17,5874,frisbee,MC6,MC,projective,NonProj,0.13,block2,62,37
17,13115,zoo,confessed,confessed,projective,C,0.85,block2,62,38
17,3811,cupcakes,is_annoyed,is_annoyed,projective,C,0.87,block2,62,39
17,5146,ditch,is_aware,is_aware,projective,C,0.84,block2,62,40
18,11503,picture,MC6,MC,projective,NonProj,0.03,block1,37,1
18,9719,tea,established,established,projective,C,0.3,block1,37,2
18,8288,pool,is_aware,is_aware,projective,C,0.98,block1,37,3
18,7159,poem,is_annoyed,is_annoyed,projective,C,0.99,block1,37,4
18,7520,swing,MC4,MC,projective,NonProj,0.01,block1,37,5
18,7440,damp,is_amused,is_amused,projective,C,0.99,block1,37,6
18,9594,cupcakes,realize,realize,projective,C,0.99,block1,37,7
18,9824,frisbee,revealed,revealed,projective,C,0.69,block1,37,8
18,10296,garage,found_out,found_out,projective,C,1,block1,37,9
18,5466,nails,noticed,noticed,projective,C,0.98,block1,37,10
18,5765,bmw,MC7,MC,projective,NonProj,0.78,block1,37,11
18,4625,purple,MC3,MC,projective,NonProj,0.02,block1,37,12
18,9991,horse,discovered,discovered,projective,C,0.5,block1,37,13
18,4912,zoo,saw,saw,projective,C,0.98,block1,37,14
18,4976,yoga,MC2,MC,projective,NonProj,0.02,block1,37,15
18,4315,chili,MC5,MC,projective,NonProj,0,block1,37,16
18,3903,hat,MC1,MC,projective,NonProj,0.03,block1,37,17
18,11776,dancing,confessed,confessed,projective,C,0.49,block1,37,18
18,8607,poodle,learned,learned,projective,C,0.98,block1,37,19
18,6960,ditch,MC8,MC,projective,NonProj,0.5,block1,37,20
18,14238,poodle,learned,learned,ai,C,0.99,block2,37,21
18,8296,poem,is_annoyed,is_annoyed,ai,C,0.98,block2,37,22
18,7970,tea,established,established,ai,C,0.49,block2,37,23
18,7743,zoo,saw,saw,ai,C,0.98,block2,37,24
18,2847,purple,MC3,MC,ai,NonProj,0.02,block2,37,25
18,4912,horse,discovered,discovered,ai,C,0.51,block2,37,26
18,3232,chili,MC5,MC,ai,NonProj,0.03,block2,37,27
18,4848,pool,is_aware,is_aware,ai,C,0.99,block2,37,28
18,4484,damp,is_amused,is_amused,ai,C,0.98,block2,37,29
18,4411,swing,MC4,MC,ai,NonProj,0.01,block2,37,30
18,9535,frisbee,revealed,revealed,ai,C,0.69,block2,37,31
18,6055,picture,MC6,MC,ai,NonProj,0.01,block2,37,32
18,4825,garage,found_out,found_out,ai,C,0.99,block2,37,33
18,4329,yoga,MC2,MC,ai,NonProj,0.02,block2,37,34
18,4207,bmw,MC7,MC,ai,NonProj,0.01,block2,37,35
18,4337,hat,MC1,MC,ai,NonProj,0.03,block2,37,36
18,5360,cupcakes,realize,realize,ai,C,0.99,block2,37,37
18,5703,nails,noticed,noticed,ai,C,1,block2,37,38
18,8217,ditch,MC8,MC,ai,NonProj,0.02,block2,37,39
18,3207,dancing,confessed,confessed,ai,C,0.97,block2,37,40
19,8694,poem,saw,saw,ai,C,0.07,block1,26,1
19,5024,ditch,MC5,MC,ai,NonProj,0.04,block1,26,2
19,8511,picture,MC8,MC,ai,NonProj,0.2,block1,26,3
19,5584,bmw,MC2,MC,ai,NonProj,0.09,block1,26,4
19,9759,cupcakes,found_out,found_out,ai,C,0.94,block1,26,5
19,8360,nails,noticed,noticed,ai,C,0.91,block1,26,6
19,3727,chili,MC1,MC,ai,NonProj,0,block1,26,7
19,9632,yoga,confessed,confessed,ai,C,0.17,block1,26,8
19,7319,horse,is_annoyed,is_annoyed,ai,C,0.9,block1,26,9
19,7256,hat,MC3,MC,ai,NonProj,0,block1,26,10
19,6848,damp,is_aware,is_aware,ai,C,0.96,block1,26,11
19,6536,dancing,is_amused,is_amused,ai,C,0.92,block1,26,12
19,3841,purple,discovered,discovered,ai,C,0.94,block1,26,13
19,4071,poodle,MC6,MC,ai,NonProj,0.03,block1,26,14
19,4776,tea,established,established,ai,C,0.1,block1,26,15
19,5993,swing,MC7,MC,ai,NonProj,0.05,block1,26,16
19,4231,zoo,realize,realize,ai,C,0.94,block1,26,17
19,4095,garage,MC4,MC,ai,NonProj,0.02,block1,26,18
19,6536,pool,learned,learned,ai,C,0.98,block1,26,19
19,4928,frisbee,revealed,revealed,ai,C,0.99,block1,26,20
19,5358,nails,noticed,noticed,projective,C,0.96,block2,26,21
19,4719,zoo,realize,realize,projective,C,0.98,block2,26,22
19,2984,garage,MC4,MC,projective,NonProj,0.07,block2,26,23
19,3096,ditch,MC5,MC,projective,NonProj,0.05,block2,26,24
19,4504,damp,is_aware,is_aware,projective,C,0.9,block2,26,25
19,6352,horse,is_annoyed,is_annoyed,projective,C,0.91,block2,26,26
19,3247,cupcakes,found_out,found_out,projective,C,0.99,block2,26,27
19,5424,yoga,confessed,confessed,projective,C,0.19,block2,26,28
19,3192,chili,MC1,MC,projective,NonProj,0.04,block2,26,29
19,4720,hat,MC3,MC,projective,NonProj,0,block2,26,30
19,3280,pool,learned,learned,projective,C,1,block2,26,31
19,5783,frisbee,revealed,revealed,projective,C,0.57,block2,26,32
19,5735,poem,saw,saw,projective,C,1,block2,26,33
19,5169,tea,established,established,projective,C,0.12,block2,26,34
19,6361,poodle,MC6,MC,projective,NonProj,0.02,block2,26,35
19,3224,swing,MC7,MC,projective,NonProj,0,block2,26,36
19,3783,dancing,is_amused,is_amused,projective,C,0.94,block2,26,37
19,2688,bmw,MC2,MC,projective,NonProj,0,block2,26,38
19,3088,picture,MC8,MC,projective,NonProj,0,block2,26,39
19,3968,purple,discovered,discovered,projective,C,0.92,block2,26,40
20,13099,yoga,learned,learned,projective,C,0.5,block1,25,1
20,6882,bmw,revealed,revealed,projective,C,0.97,block1,25,2
20,4722,cupcakes,is_annoyed,is_annoyed,projective,C,0.98,block1,25,3
20,4688,nails,MC3,MC,projective,NonProj,0.01,block1,25,4
20,5404,picture,discovered,discovered,projective,C,0.97,block1,25,5
20,11403,damp,found_out,found_out,projective,C,0.99,block1,25,6
20,4491,purple,is_aware,is_aware,projective,C,0.97,block1,25,7
20,3372,garage,MC5,MC,projective,NonProj,0.01,block1,25,8
20,2884,chili,MC7,MC,projective,NonProj,0,block1,25,9
20,9983,hat,MC1,MC,projective,NonProj,0.03,block1,25,10
20,5147,horse,confessed,confessed,projective,C,0.96,block1,25,11
20,3244,tea,is_amused,is_amused,projective,C,0.98,block1,25,12
20,4522,zoo,realize,realize,projective,C,0.98,block1,25,13
20,4048,swing,MC4,MC,projective,NonProj,0.01,block1,25,14
20,3769,ditch,saw,saw,projective,C,0.95,block1,25,15
20,4901,frisbee,MC8,MC,projective,NonProj,0.02,block1,25,16
20,5213,dancing,established,established,projective,C,0.01,block1,25,17
20,3674,poem,MC6,MC,projective,NonProj,0.02,block1,25,18
20,8875,poodle,noticed,noticed,projective,C,0.99,block1,25,19
20,2846,pool,MC2,MC,projective,NonProj,0.02,block1,25,20
20,5522,poodle,noticed,noticed,ai,C,0.98,block2,25,21
20,5083,pool,MC2,MC,ai,NonProj,0.04,block2,25,22
20,4332,yoga,learned,learned,ai,C,1,block2,25,23
20,5298,ditch,saw,saw,ai,C,0.97,block2,25,24
20,2694,purple,is_aware,is_aware,ai,C,0.97,block2,25,25
20,2858,nails,MC3,MC,ai,NonProj,0.04,block2,25,26
20,4951,cupcakes,is_annoyed,is_annoyed,ai,C,0.97,block2,25,27
20,3673,swing,MC4,MC,ai,NonProj,0.02,block2,25,28
20,5979,bmw,revealed,revealed,ai,C,0.97,block2,25,29
20,3074,picture,discovered,discovered,ai,C,0.99,block2,25,30
20,3974,zoo,realize,realize,ai,C,0.96,block2,25,31
20,4669,hat,MC1,MC,ai,NonProj,0.03,block2,25,32
20,4205,dancing,established,established,ai,C,0.99,block2,25,33
20,11510,horse,confessed,confessed,ai,C,0.03,block2,25,34
20,5629,damp,found_out,found_out,ai,C,0.98,block2,25,35
20,5783,poem,MC6,MC,ai,NonProj,0.08,block2,25,36
20,3649,garage,MC5,MC,ai,NonProj,0.03,block2,25,37
20,4845,tea,is_amused,is_amused,ai,C,0.98,block2,25,38
20,3615,frisbee,MC8,MC,ai,NonProj,0.02,block2,25,39
20,2421,chili,MC7,MC,ai,NonProj,0.01,block2,25,40
21,7436,pool,MC5,MC,projective,NonProj,0.02,block1,32,1
21,4402,poodle,MC7,MC,projective,NonProj,0.99,block1,32,2
21,7723,dancing,discovered,discovered,projective,C,0.02,block1,32,3
21,6082,yoga,is_aware,is_aware,projective,C,0.98,block1,32,4
21,6283,tea,realize,realize,projective,C,0,block1,32,5
21,5525,garage,MC6,MC,projective,NonProj,0.27,block1,32,6
21,3888,damp,confessed,confessed,projective,C,0.31,block1,32,7
21,2541,swing,established,established,projective,C,0.37,block1,32,8
21,1921,horse,is_annoyed,is_annoyed,projective,C,0.61,block1,32,9
21,1877,hat,noticed,noticed,projective,C,0.3,block1,32,10
21,1898,picture,is_amused,is_amused,projective,C,0.25,block1,32,11
21,4819,nails,MC4,MC,projective,NonProj,0.1,block1,32,12
21,6460,cupcakes,revealed,revealed,projective,C,0.79,block1,32,13
21,3996,bmw,learned,learned,projective,C,0.16,block1,32,14
21,2246,ditch,saw,saw,projective,C,0.24,block1,32,15
21,8067,purple,MC8,MC,projective,NonProj,0.3,block1,32,16
21,2149,chili,MC1,MC,projective,NonProj,0.39,block1,32,17
21,1949,poem,MC2,MC,projective,NonProj,0.34,block1,32,18
21,1813,frisbee,MC3,MC,projective,NonProj,0.67,block1,32,19
21,1947,zoo,found_out,found_out,projective,C,0.51,block1,32,20
21,9486,tea,realize,realize,ai,C,0.15,block2,32,21
21,4538,picture,is_amused,is_amused,ai,C,0.16,block2,32,22
21,3576,purple,MC8,MC,ai,NonProj,0.11,block2,32,23
21,2664,poodle,MC7,MC,ai,NonProj,0.15,block2,32,24
21,2442,zoo,found_out,found_out,ai,C,0.15,block2,32,25
21,2443,chili,MC1,MC,ai,NonProj,0.15,block2,32,26
21,1998,pool,MC5,MC,ai,NonProj,0.2,block2,32,27
21,2468,poem,MC2,MC,ai,NonProj,0.2,block2,32,28
21,3033,yoga,is_aware,is_aware,ai,C,0.19,block2,32,29
21,3935,damp,confessed,confessed,ai,C,0.24,block2,32,30
21,2443,garage,MC6,MC,ai,NonProj,0.2,block2,32,31
21,2714,frisbee,MC3,MC,ai,NonProj,0.14,block2,32,32
21,2220,swing,established,established,ai,C,0.2,block2,32,33
21,2430,hat,noticed,noticed,ai,C,0.09,block2,32,34
21,4602,horse,is_annoyed,is_annoyed,ai,C,0.18,block2,32,35
21,1701,ditch,saw,saw,ai,C,0.23,block2,32,36
21,1938,bmw,learned,learned,ai,C,0.14,block2,32,37
21,1688,nails,MC4,MC,ai,NonProj,0.2,block2,32,38
21,2024,cupcakes,revealed,revealed,ai,C,0.18,block2,32,39
21,2355,dancing,discovered,discovered,ai,C,0.18,block2,32,40
22,9953,garage,MC4,MC,projective,NonProj,0.03,block1,52,1
22,5928,frisbee,MC2,MC,projective,NonProj,0.03,block1,52,2
22,7277,bmw,realize,realize,projective,C,0.97,block1,52,3
22,5553,picture,MC6,MC,projective,NonProj,0.02,block1,52,4
22,5475,horse,is_aware,is_aware,projective,C,0.96,block1,52,5
22,7397,swing,MC7,MC,projective,NonProj,0.05,block1,52,6
22,5764,tea,MC8,MC,projective,NonProj,0.02,block1,52,7
22,4995,poodle,found_out,found_out,projective,C,0.97,block1,52,8
22,4954,cupcakes,is_amused,is_amused,projective,C,0.99,block1,52,9
22,4697,zoo,confessed,confessed,projective,C,0.99,block1,52,10
22,4700,ditch,MC5,MC,projective,NonProj,0.03,block1,52,11
22,4770,hat,noticed,noticed,projective,C,0.98,block1,52,12
22,3616,dancing,MC1,MC,projective,NonProj,0.02,block1,52,13
22,10844,chili,established,established,projective,C,0.51,block1,52,14
22,5033,nails,saw,saw,projective,C,0.99,block1,52,15
22,8195,damp,is_annoyed,is_annoyed,projective,C,0.98,block1,52,16
22,6367,purple,revealed,revealed,projective,C,0,block1,52,17
22,4554,poem,learned,learned,projective,C,0.98,block1,52,18
22,3520,pool,MC3,MC,projective,NonProj,0.02,block1,52,19
22,5509,yoga,discovered,discovered,projective,C,0.96,block1,52,20
22,7418,nails,saw,saw,ai,C,0.97,block2,52,21
22,5630,cupcakes,is_amused,is_amused,ai,C,1,block2,52,22
22,3304,pool,MC3,MC,ai,NonProj,0.04,block2,52,23
22,3454,zoo,confessed,confessed,ai,C,0.96,block2,52,24
22,5272,hat,noticed,noticed,ai,C,0.96,block2,52,25
22,3526,poem,learned,learned,ai,C,0.97,block2,52,26
22,3690,chili,established,established,ai,C,1,block2,52,27
22,3221,dancing,MC1,MC,ai,NonProj,0.02,block2,52,28
22,3538,poodle,found_out,found_out,ai,C,0.97,block2,52,29
22,2635,tea,MC8,MC,ai,NonProj,0.04,block2,52,30
22,2538,garage,MC4,MC,ai,NonProj,0.01,block2,52,31
22,3141,purple,revealed,revealed,ai,C,0.98,block2,52,32
22,4408,frisbee,MC2,MC,ai,NonProj,0.03,block2,52,33
22,3592,bmw,realize,realize,ai,C,0.97,block2,52,34
22,4282,horse,is_aware,is_aware,ai,C,0.99,block2,52,35
22,4349,swing,MC7,MC,ai,NonProj,0.03,block2,52,36
22,10481,damp,is_annoyed,is_annoyed,ai,C,0.98,block2,52,37
22,4245,picture,MC6,MC,ai,NonProj,0.04,block2,52,38
22,10693,ditch,MC5,MC,ai,NonProj,0.04,block2,52,39
22,5426,yoga,discovered,discovered,ai,C,0.99,block2,52,40
23,5008,chili,MC2,MC,projective,NonProj,0.02,block1,34,1
23,5741,nails,MC5,MC,projective,NonProj,0,block1,34,2
23,3671,tea,MC3,MC,projective,NonProj,0,block1,34,3
23,4787,poem,MC6,MC,projective,NonProj,0,block1,34,4
23,6611,bmw,realize,realize,projective,C,1,block1,34,5
23,7895,zoo,is_annoyed,is_annoyed,projective,C,1,block1,34,6
23,5713,dancing,is_aware,is_aware,projective,C,1,block1,34,7
23,6663,ditch,established,established,projective,C,0,block1,34,8
23,4086,yoga,learned,learned,projective,C,1,block1,34,9
23,3454,cupcakes,is_amused,is_amused,projective,C,1,block1,34,10
23,2969,damp,MC8,MC,projective,NonProj,0,block1,34,11
23,5461,garage,saw,saw,projective,C,1,block1,34,12
23,4228,pool,MC1,MC,projective,NonProj,0,block1,34,13
23,4165,horse,noticed,noticed,projective,C,1,block1,34,14
23,2670,hat,MC4,MC,projective,NonProj,0,block1,34,15
23,5146,frisbee,revealed,revealed,projective,C,1,block1,34,16
23,4368,poodle,MC7,MC,projective,NonProj,0.02,block1,34,17
23,4368,purple,found_out,found_out,projective,C,1,block1,34,18
23,3483,picture,discovered,discovered,projective,C,1,block1,34,19
23,9093,swing,confessed,confessed,projective,C,0,block1,34,20
23,5003,nails,MC5,MC,ai,NonProj,0,block2,34,21
23,4672,zoo,is_annoyed,is_annoyed,ai,C,0.99,block2,34,22
23,5650,dancing,is_aware,is_aware,ai,C,1,block2,34,23
23,2669,chili,MC2,MC,ai,NonProj,0,block2,34,24
23,2739,purple,found_out,found_out,ai,C,1,block2,34,25
23,2457,damp,MC8,MC,ai,NonProj,0,block2,34,26
23,3211,bmw,realize,realize,ai,C,1,block2,34,27
23,3750,tea,MC3,MC,ai,NonProj,0,block2,34,28
23,2904,picture,discovered,discovered,ai,C,1,block2,34,29
23,2568,hat,MC4,MC,ai,NonProj,0,block2,34,30
23,2127,pool,MC1,MC,ai,NonProj,0,block2,34,31
23,4521,frisbee,revealed,revealed,ai,C,1,block2,34,32
23,2486,horse,noticed,noticed,ai,C,1,block2,34,33
23,2296,yoga,learned,learned,ai,C,1,block2,34,34
23,3812,ditch,established,established,ai,C,0,block2,34,35
23,4370,poodle,MC7,MC,ai,NonProj,0,block2,34,36
23,2872,garage,saw,saw,ai,C,1,block2,34,37
23,3688,cupcakes,is_amused,is_amused,ai,C,1,block2,34,38
23,2798,swing,confessed,confessed,ai,C,1,block2,34,39
23,2520,poem,MC6,MC,ai,NonProj,0,block2,34,40
24,13048,yoga,discovered,discovered,projective,C,1,block1,36,1
24,6792,cupcakes,established,established,projective,C,1,block1,36,2
24,10338,purple,MC4,MC,projective,NonProj,0,block1,36,3
24,8501,damp,learned,learned,projective,C,1,block1,36,4
24,23049,pool,confessed,confessed,projective,C,0,block1,36,5
24,6951,frisbee,noticed,noticed,projective,C,1,block1,36,6
24,5015,tea,MC2,MC,projective,NonProj,0,block1,36,7
24,7817,nails,MC1,MC,projective,NonProj,0,block1,36,8
24,5500,picture,MC3,MC,projective,NonProj,0,block1,36,9
24,5216,poodle,found_out,found_out,projective,C,1,block1,36,10
24,7267,swing,is_amused,is_amused,projective,C,1,block1,36,11
24,5266,horse,MC7,MC,projective,NonProj,0,block1,36,12
24,17384,hat,revealed,revealed,projective,C,1,block1,36,13
24,5065,zoo,saw,saw,projective,C,1,block1,36,14
24,6800,poem,is_annoyed,is_annoyed,projective,C,1,block1,36,15
24,6518,bmw,is_aware,is_aware,projective,C,1,block1,36,16
24,5147,garage,realize,realize,projective,C,1,block1,36,17
24,3833,dancing,MC8,MC,projective,NonProj,0,block1,36,18
24,4867,ditch,MC5,MC,projective,NonProj,0,block1,36,19
24,4917,chili,MC6,MC,projective,NonProj,0,block1,36,20
24,4582,tea,MC2,MC,ai,NonProj,0,block2,36,21
24,9503,garage,realize,realize,ai,C,1,block2,36,22
24,4749,dancing,MC8,MC,ai,NonProj,0,block2,36,23
24,4665,yoga,discovered,discovered,ai,C,1,block2,36,24
24,6372,swing,is_amused,is_amused,ai,C,1,block2,36,25
24,3992,nails,MC1,MC,ai,NonProj,0,block2,36,26
24,3952,horse,MC7,MC,ai,NonProj,0,block2,36,27
24,6137,damp,learned,learned,ai,C,1,block2,36,28
24,6147,bmw,is_aware,is_aware,ai,C,1,block2,36,29
24,4986,picture,MC3,MC,ai,NonProj,0,block2,36,30
24,4145,poodle,found_out,found_out,ai,C,1,block2,36,31
24,6102,cupcakes,established,established,ai,C,1,block2,36,32
24,3882,frisbee,noticed,noticed,ai,C,1,block2,36,33
24,4448,ditch,MC5,MC,ai,NonProj,0,block2,36,34
24,4351,poem,is_annoyed,is_annoyed,ai,C,1,block2,36,35
24,5310,hat,revealed,revealed,ai,C,1,block2,36,36
24,4758,purple,MC4,MC,ai,NonProj,0,block2,36,37
24,3267,chili,MC6,MC,ai,NonProj,0,block2,36,38
24,3948,pool,confessed,confessed,ai,C,1,block2,36,39
24,4183,zoo,saw,saw,ai,C,1,block2,36,40
25,14274,damp,saw,saw,ai,C,0.17,block1,26,1
25,15048,bmw,confessed,confessed,ai,C,0.82,block1,26,2
25,8881,yoga,noticed,noticed,ai,C,1,block1,26,3
25,5304,horse,MC2,MC,ai,NonProj,0,block1,26,4
25,5242,poem,MC3,MC,ai,NonProj,0,block1,26,5
25,3532,pool,MC5,MC,ai,NonProj,0,block1,26,6
25,6561,dancing,learned,learned,ai,C,1,block1,26,7
25,7219,cupcakes,MC1,MC,ai,NonProj,0,block1,26,8
25,4671,swing,MC4,MC,ai,NonProj,0,block1,26,9
25,11058,picture,realize,realize,ai,C,1,block1,26,10
25,9028,poodle,established,established,ai,C,0.55,block1,26,11
25,5382,chili,is_amused,is_amused,ai,C,1,block1,26,12
25,6156,nails,found_out,found_out,ai,C,1,block1,26,13
25,3053,zoo,MC7,MC,ai,NonProj,0,block1,26,14
25,6221,hat,discovered,discovered,ai,C,1,block1,26,15
25,6381,tea,is_aware,is_aware,ai,C,1,block1,26,16
25,3688,frisbee,MC8,MC,ai,NonProj,0,block1,26,17
25,5211,ditch,MC6,MC,ai,NonProj,0,block1,26,18
25,9001,garage,revealed,revealed,ai,C,0.88,block1,26,19
25,7305,purple,is_annoyed,is_annoyed,ai,C,1,block1,26,20
25,5523,damp,saw,saw,projective,C,0.91,block2,26,21
25,3185,zoo,MC7,MC,projective,NonProj,0,block2,26,22
25,6157,yoga,noticed,noticed,projective,C,1,block2,26,23
25,4077,ditch,MC6,MC,projective,NonProj,0,block2,26,24
25,4446,cupcakes,MC1,MC,projective,NonProj,0,block2,26,25
25,9038,horse,MC2,MC,projective,NonProj,0,block2,26,26
25,8845,frisbee,MC8,MC,projective,NonProj,0.01,block2,26,27
25,3844,tea,is_aware,is_aware,projective,C,1,block2,26,28
25,3258,purple,is_annoyed,is_annoyed,projective,C,1,block2,26,29
25,22764,garage,revealed,revealed,projective,C,0.73,block2,26,30
25,3484,hat,discovered,discovered,projective,C,0.89,block2,26,31
25,4070,picture,realize,realize,projective,C,1,block2,26,32
25,3525,pool,MC5,MC,projective,NonProj,0,block2,26,33
25,7717,nails,found_out,found_out,projective,C,0.69,block2,26,34
25,3537,bmw,confessed,confessed,projective,C,0.83,block2,26,35
25,3149,chili,is_amused,is_amused,projective,C,1,block2,26,36
25,3204,poem,MC3,MC,projective,NonProj,0,block2,26,37
25,4366,dancing,learned,learned,projective,C,0.94,block2,26,38
25,3126,swing,MC4,MC,projective,NonProj,0,block2,26,39
25,5843,poodle,established,established,projective,C,0.26,block2,26,40
26,7376,cupcakes,MC4,MC,ai,NonProj,0.01,block1,29,1
26,9167,poem,saw,saw,ai,C,0.99,block1,29,2
26,6097,hat,revealed,revealed,ai,C,1,block1,29,3
26,3886,zoo,established,established,ai,C,0.99,block1,29,4
26,3687,damp,learned,learned,ai,C,0,block1,29,5
26,16200,dancing,MC5,MC,ai,NonProj,0.02,block1,29,6
26,3320,frisbee,MC8,MC,ai,NonProj,0.01,block1,29,7
26,3276,poodle,noticed,noticed,ai,C,0.99,block1,29,8
26,3447,chili,found_out,found_out,ai,C,1,block1,29,9
26,3127,yoga,MC2,MC,ai,NonProj,0,block1,29,10
26,2880,swing,is_amused,is_amused,ai,C,0.98,block1,29,11
26,2832,picture,is_aware,is_aware,ai,C,1,block1,29,12
26,2432,pool,realize,realize,ai,C,1,block1,29,13
26,2728,horse,MC6,MC,ai,NonProj,0.01,block1,29,14
26,2783,tea,MC7,MC,ai,NonProj,0,block1,29,15
26,4127,ditch,confessed,confessed,ai,C,1,block1,29,16
26,2544,garage,discovered,discovered,ai,C,1,block1,29,17
26,2622,bmw,MC1,MC,ai,NonProj,0,block1,29,18
26,3479,nails,MC3,MC,ai,NonProj,0.01,block1,29,19
26,3575,purple,is_annoyed,is_annoyed,ai,C,1,block1,29,20
26,3896,dancing,MC5,MC,projective,NonProj,0,block2,29,21
26,2319,horse,MC6,MC,projective,NonProj,0,block2,29,22
26,2312,tea,MC7,MC,projective,NonProj,0,block2,29,23
26,4104,chili,found_out,found_out,projective,C,1,block2,29,24
26,1881,bmw,MC1,MC,projective,NonProj,0,block2,29,25
26,1542,nails,MC3,MC,projective,NonProj,0,block2,29,26
26,1712,ditch,confessed,confessed,projective,C,1,block2,29,27
26,2304,swing,is_amused,is_amused,projective,C,1,block2,29,28
26,2104,yoga,MC2,MC,projective,NonProj,0,block2,29,29
26,3512,hat,revealed,revealed,projective,C,1,block2,29,30
26,3632,zoo,established,established,projective,C,1,block2,29,31
26,4031,pool,realize,realize,projective,C,1,block2,29,32
26,2311,poodle,noticed,noticed,projective,C,1,block2,29,33
26,3463,damp,learned,learned,projective,C,1,block2,29,34
26,3847,garage,discovered,discovered,projective,C,1,block2,29,35
26,3272,purple,is_annoyed,is_annoyed,projective,C,1,block2,29,36
26,3255,frisbee,MC8,MC,projective,NonProj,0,block2,29,37
26,1656,cupcakes,MC4,MC,projective,NonProj,0,block2,29,38
26,1864,poem,saw,saw,projective,C,1,block2,29,39
26,2704,picture,is_aware,is_aware,projective,C,1,block2,29,40
27,9437,yoga,learned,learned,projective,C,0.99,block1,50,1
27,13922,tea,revealed,revealed,projective,C,0.97,block1,50,2
27,8004,picture,MC3,MC,projective,NonProj,0.01,block1,50,3
27,8263,hat,noticed,noticed,projective,C,0.97,block1,50,4
27,9209,horse,MC8,MC,projective,NonProj,0,block1,50,5
27,5872,garage,MC2,MC,projective,NonProj,0.02,block1,50,6
27,5911,nails,MC5,MC,projective,NonProj,0.01,block1,50,7
27,4991,chili,MC1,MC,projective,NonProj,0.01,block1,50,8
27,9031,ditch,discovered,discovered,projective,C,0.93,block1,50,9
27,8319,dancing,found_out,found_out,projective,C,0.97,block1,50,10
27,6405,zoo,realize,realize,projective,C,0.98,block1,50,11
27,6922,poem,MC4,MC,projective,NonProj,0.02,block1,50,12
27,8466,cupcakes,is_amused,is_amused,projective,C,0.98,block1,50,13
27,7668,poodle,saw,saw,projective,C,0.99,block1,50,14
27,8079,swing,MC7,MC,projective,NonProj,0.01,block1,50,15
27,5943,pool,is_aware,is_aware,projective,C,0.99,block1,50,16
27,7983,purple,established,established,projective,C,0.34,block1,50,17
27,6512,bmw,confessed,confessed,projective,C,0.98,block1,50,18
27,6207,damp,is_annoyed,is_annoyed,projective,C,0.98,block1,50,19
27,5639,frisbee,MC6,MC,projective,NonProj,0.01,block1,50,20
27,20306,bmw,confessed,confessed,ai,C,0.99,block2,50,21
27,8745,zoo,realize,realize,ai,C,1,block2,50,22
27,7264,picture,MC3,MC,ai,NonProj,0.02,block2,50,23
27,5335,hat,noticed,noticed,ai,C,0.99,block2,50,24
27,5824,purple,established,established,ai,C,0.01,block2,50,25
27,4488,swing,MC7,MC,ai,NonProj,0.02,block2,50,26
27,13448,poodle,saw,saw,ai,C,0.98,block2,50,27
27,5167,pool,is_aware,is_aware,ai,C,0.99,block2,50,28
27,5992,poem,MC4,MC,ai,NonProj,0.03,block2,50,29
27,4231,garage,MC2,MC,ai,NonProj,0.02,block2,50,30
27,5607,ditch,discovered,discovered,ai,C,0.98,block2,50,31
27,6095,damp,is_annoyed,is_annoyed,ai,C,0.98,block2,50,32
27,3233,chili,MC1,MC,ai,NonProj,0.01,block2,50,33
27,4327,nails,MC5,MC,ai,NonProj,0.01,block2,50,34
27,3551,horse,MC8,MC,ai,NonProj,0.02,block2,50,35
27,5848,dancing,found_out,found_out,ai,C,0.98,block2,50,36
27,3815,frisbee,MC6,MC,ai,NonProj,0.02,block2,50,37
27,6137,cupcakes,is_amused,is_amused,ai,C,0.99,block2,50,38
27,4800,tea,revealed,revealed,ai,C,0.98,block2,50,39
27,7135,yoga,learned,learned,ai,C,1,block2,50,40
28,20343,purple,MC8,MC,ai,NonProj,0,block1,40,1
28,7466,bmw,MC2,MC,ai,NonProj,0,block1,40,2
28,7192,hat,MC4,MC,ai,NonProj,0,block1,40,3
28,21718,poem,is_annoyed,is_annoyed,ai,C,1,block1,40,4
28,6341,dancing,revealed,revealed,ai,C,1,block1,40,5
28,3301,nails,MC7,MC,ai,NonProj,0,block1,40,6
28,13788,swing,found_out,found_out,ai,C,1,block1,40,7
28,5627,garage,MC3,MC,ai,NonProj,0,block1,40,8
28,5671,horse,saw,saw,ai,C,1,block1,40,9
28,3793,tea,MC5,MC,ai,NonProj,0,block1,40,10
28,4316,damp,confessed,confessed,ai,C,1,block1,40,11
28,12408,ditch,discovered,discovered,ai,C,1,block1,40,12
28,6692,frisbee,is_amused,is_amused,ai,C,1,block1,40,13
28,4772,chili,realize,realize,ai,C,1,block1,40,14
28,4993,picture,is_aware,is_aware,ai,C,1,block1,40,15
28,3660,poodle,MC6,MC,ai,NonProj,0,block1,40,16
28,4507,yoga,noticed,noticed,ai,C,1,block1,40,17
28,6205,cupcakes,learned,learned,ai,C,1,block1,40,18
28,7476,pool,MC1,MC,ai,NonProj,0,block1,40,19
28,6224,zoo,established,established,ai,C,1,block1,40,20
28,9306,yoga,noticed,noticed,projective,C,1,block2,40,21
28,8392,nails,MC7,MC,projective,NonProj,0,block2,40,22
28,3561,pool,MC1,MC,projective,NonProj,0,block2,40,23
28,4588,horse,saw,saw,projective,C,1,block2,40,24
28,9879,zoo,established,established,projective,C,0,block2,40,25
28,4975,bmw,MC2,MC,projective,NonProj,0,block2,40,26
28,3677,hat,MC4,MC,projective,NonProj,0,block2,40,27
28,5436,dancing,revealed,revealed,projective,C,1,block2,40,28
28,5917,ditch,discovered,discovered,projective,C,1,block2,40,29
28,26822,tea,MC5,MC,projective,NonProj,0,block2,40,30
28,11557,purple,MC8,MC,projective,NonProj,0,block2,40,31
28,5247,damp,confessed,confessed,projective,C,1,block2,40,32
28,4938,frisbee,is_amused,is_amused,projective,C,1,block2,40,33
28,6291,poem,is_annoyed,is_annoyed,projective,C,1,block2,40,34
28,13269,swing,found_out,found_out,projective,C,1,block2,40,35
28,3528,chili,realize,realize,projective,C,1,block2,40,36
28,4511,garage,MC3,MC,projective,NonProj,0,block2,40,37
28,4913,picture,is_aware,is_aware,projective,C,1,block2,40,38
28,6748,cupcakes,learned,learned,projective,C,1,block2,40,39
28,4288,poodle,MC6,MC,projective,NonProj,0,block2,40,40
29,10383,frisbee,MC1,MC,ai,NonProj,0.01,block1,30,1
29,3989,hat,MC8,MC,ai,NonProj,0.0600000000000001,block1,30,2
29,9824,cupcakes,noticed,noticed,ai,C,1,block1,30,3
29,4877,dancing,MC3,MC,ai,NonProj,0.02,block1,30,4
29,4108,tea,MC6,MC,ai,NonProj,0.02,block1,30,5
29,6791,garage,confessed,confessed,ai,C,0.99,block1,30,6
29,10869,picture,MC7,MC,ai,NonProj,0.02,block1,30,7
29,5999,zoo,is_amused,is_amused,ai,C,0.99,block1,30,8
29,7931,pool,MC4,MC,ai,NonProj,0.01,block1,30,9
29,7806,poem,realize,realize,ai,C,1,block1,30,10
29,43722,damp,established,established,ai,C,1,block1,30,11
29,13689,chili,MC2,MC,ai,NonProj,0,block1,30,12
29,4401,poodle,is_annoyed,is_annoyed,ai,C,0.99,block1,30,13
29,6098,horse,saw,saw,ai,C,0.99,block1,30,14
29,7271,ditch,discovered,discovered,ai,C,1,block1,30,15
29,6929,swing,found_out,found_out,ai,C,0.98,block1,30,16
29,7999,bmw,MC5,MC,ai,NonProj,0.01,block1,30,17
29,3944,nails,learned,learned,ai,C,0.99,block1,30,18
29,3774,purple,revealed,revealed,ai,C,0.02,block1,30,19
29,6974,yoga,is_aware,is_aware,ai,C,0.02,block1,30,20
29,6139,horse,saw,saw,projective,C,1,block2,30,21
29,5748,picture,MC7,MC,projective,NonProj,0.02,block2,30,22
29,7171,ditch,discovered,discovered,projective,C,0.99,block2,30,23
29,5572,cupcakes,noticed,noticed,projective,C,0.98,block2,30,24
29,4299,chili,MC2,MC,projective,NonProj,0,block2,30,25
29,6172,swing,found_out,found_out,projective,C,1,block2,30,26
29,5332,tea,MC6,MC,projective,NonProj,0.01,block2,30,27
29,5495,poodle,is_annoyed,is_annoyed,projective,C,0.98,block2,30,28
29,8635,garage,confessed,confessed,projective,C,0.98,block2,30,29
29,4599,nails,learned,learned,projective,C,1,block2,30,30
29,11171,damp,established,established,projective,C,0.99,block2,30,31
29,7447,bmw,MC5,MC,projective,NonProj,0.02,block2,30,32
29,19410,zoo,is_amused,is_amused,projective,C,0.99,block2,30,33
29,3630,pool,MC4,MC,projective,NonProj,0.02,block2,30,34
29,2905,hat,MC8,MC,projective,NonProj,0.01,block2,30,35
29,6124,purple,revealed,revealed,projective,C,0.99,block2,30,36
29,4742,dancing,MC3,MC,projective,NonProj,0.01,block2,30,37
29,6008,yoga,is_aware,is_aware,projective,C,0.99,block2,30,38
29,33152,poem,realize,realize,projective,C,0.97,block2,30,39
29,4582,frisbee,MC1,MC,projective,NonProj,0.03,block2,30,40
30,12254,nails,MC3,MC,projective,NonProj,0.05,block1,55,1
30,10591,tea,learned,learned,projective,C,0.88,block1,55,2
30,10441,bmw,is_aware,is_aware,projective,C,0.81,block1,55,3
30,15256,poem,MC8,MC,projective,NonProj,0.07,block1,55,4
30,8975,yoga,realize,realize,projective,C,0.85,block1,55,5
30,4807,swing,MC6,MC,projective,NonProj,0.09,block1,55,6
30,8088,damp,confessed,confessed,projective,C,0.88,block1,55,7
30,8457,pool,is_amused,is_amused,projective,C,0.87,block1,55,8
30,7231,picture,discovered,discovered,projective,C,0.89,block1,55,9
30,6430,chili,established,established,projective,C,0.89,block1,55,10
30,5151,poodle,noticed,noticed,projective,C,0.9,block1,55,11
30,4737,purple,MC7,MC,projective,NonProj,0.07,block1,55,12
30,6047,frisbee,saw,saw,projective,C,0.9,block1,55,13
30,4824,horse,MC1,MC,projective,NonProj,0.09,block1,55,14
30,5055,cupcakes,MC5,MC,projective,NonProj,0.1,block1,55,15
30,6287,garage,found_out,found_out,projective,C,0.9,block1,55,16
30,5903,dancing,is_annoyed,is_annoyed,projective,C,0.93,block1,55,17
30,11160,hat,revealed,revealed,projective,C,0.83,block1,55,18
30,5808,ditch,MC4,MC,projective,NonProj,0.1,block1,55,19
30,4329,zoo,MC2,MC,projective,NonProj,0.1,block1,55,20
30,8988,purple,MC7,MC,ai,NonProj,0.08,block2,55,21
30,4479,horse,MC1,MC,ai,NonProj,0.08,block2,55,22
30,5905,zoo,MC2,MC,ai,NonProj,0.09,block2,55,23
30,5383,poem,MC8,MC,ai,NonProj,0.09,block2,55,24
30,7752,tea,learned,learned,ai,C,0.89,block2,55,25
30,7903,picture,discovered,discovered,ai,C,0.87,block2,55,26
30,7503,frisbee,saw,saw,ai,C,0.9,block2,55,27
30,7303,garage,found_out,found_out,ai,C,0.89,block2,55,28
30,6881,bmw,is_aware,is_aware,ai,C,0.87,block2,55,29
30,5750,chili,established,established,ai,C,0.9,block2,55,30
30,6343,pool,is_amused,is_amused,ai,C,0.91,block2,55,31
30,7927,yoga,realize,realize,ai,C,0.92,block2,55,32
30,7409,nails,MC3,MC,ai,NonProj,0.09,block2,55,33
30,5975,dancing,is_annoyed,is_annoyed,ai,C,0.94,block2,55,34
30,6056,poodle,noticed,noticed,ai,C,0.91,block2,55,35
30,8000,swing,MC6,MC,ai,NonProj,0.07,block2,55,36
30,5824,ditch,MC4,MC,ai,NonProj,0.07,block2,55,37
30,6336,damp,confessed,confessed,ai,C,0.94,block2,55,38
30,8095,cupcakes,MC5,MC,ai,NonProj,0.09,block2,55,39
30,16120,hat,revealed,revealed,ai,C,0.94,block2,55,40
31,12798,damp,revealed,revealed,ai,C,0.98,block1,40,1
31,5879,frisbee,MC7,MC,ai,NonProj,0.03,block1,40,2
31,8104,pool,found_out,found_out,ai,C,0.98,block1,40,3
31,4448,poem,MC8,MC,ai,NonProj,0.03,block1,40,4
31,8304,dancing,realize,realize,ai,C,0.97,block1,40,5
31,4599,zoo,MC5,MC,ai,NonProj,0.02,block1,40,6
31,4255,bmw,MC1,MC,ai,NonProj,0.02,block1,40,7
31,5728,cupcakes,MC3,MC,ai,NonProj,0,block1,40,8
31,7824,hat,MC6,MC,ai,NonProj,0.02,block1,40,9
31,7784,swing,MC2,MC,ai,NonProj,0.01,block1,40,10
31,7089,garage,is_aware,is_aware,ai,C,0.98,block1,40,11
31,6158,yoga,saw,saw,ai,C,0.98,block1,40,12
31,6330,chili,noticed,noticed,ai,C,0.98,block1,40,13
31,17439,purple,established,established,ai,C,0.26,block1,40,14
31,7224,poodle,discovered,discovered,ai,C,0.98,block1,40,15
31,7807,picture,confessed,confessed,ai,C,0.97,block1,40,16
31,4088,nails,MC4,MC,ai,NonProj,0.02,block1,40,17
31,6190,horse,is_annoyed,is_annoyed,ai,C,1,block1,40,18
31,5719,tea,learned,learned,ai,C,0.97,block1,40,19
31,4287,ditch,is_amused,is_amused,ai,C,0.98,block1,40,20
31,12041,frisbee,MC7,MC,projective,NonProj,0.01,block2,40,21
31,29902,swing,MC2,MC,projective,NonProj,0.5,block2,40,22
31,5911,ditch,is_amused,is_amused,projective,C,0.98,block2,40,23
31,13209,poodle,discovered,discovered,projective,C,0.98,block2,40,24
31,7255,nails,MC4,MC,projective,NonProj,0.02,block2,40,25
31,22802,tea,learned,learned,projective,C,0.83,block2,40,26
31,4431,bmw,MC1,MC,projective,NonProj,0.02,block2,40,27
31,5656,dancing,realize,realize,projective,C,0.97,block2,40,28
31,17865,hat,MC6,MC,projective,NonProj,0.43,block2,40,29
31,6639,pool,found_out,found_out,projective,C,0.99,block2,40,30
31,4513,yoga,saw,saw,projective,C,0.97,block2,40,31
31,7687,cupcakes,MC3,MC,projective,NonProj,0.03,block2,40,32
31,13487,damp,revealed,revealed,projective,C,0.84,block2,40,33
31,5839,poem,MC8,MC,projective,NonProj,0.03,block2,40,34
31,3576,zoo,MC5,MC,projective,NonProj,0.02,block2,40,35
31,3817,horse,is_annoyed,is_annoyed,projective,C,0.98,block2,40,36
31,3695,chili,noticed,noticed,projective,C,0.99,block2,40,37
31,9336,purple,established,established,projective,C,0.17,block2,40,38
31,7240,picture,confessed,confessed,projective,C,0.71,block2,40,39
31,4816,garage,is_aware,is_aware,projective,C,0.98,block2,40,40
32,12668,hat,MC7,MC,ai,NonProj,0.03,block1,43,1
32,7818,zoo,MC4,MC,ai,NonProj,0,block1,43,2
32,16561,nails,learned,learned,ai,C,0.59,block1,43,3
32,10773,yoga,revealed,revealed,ai,C,0.67,block1,43,4
32,5210,dancing,MC2,MC,ai,NonProj,0.02,block1,43,5
32,7187,garage,realize,realize,ai,C,0.57,block1,43,6
32,6571,purple,MC5,MC,ai,NonProj,0.01,block1,43,7
32,9892,picture,is_annoyed,is_annoyed,ai,C,0.65,block1,43,8
32,7283,poodle,discovered,discovered,ai,C,0.7,block1,43,9
32,4779,swing,saw,saw,ai,C,0.55,block1,43,10
32,8150,damp,noticed,noticed,ai,C,0.55,block1,43,11
32,4406,ditch,MC6,MC,ai,NonProj,0.02,block1,43,12
32,5155,cupcakes,MC3,MC,ai,NonProj,0.02,block1,43,13
32,4690,tea,MC8,MC,ai,NonProj,0.02,block1,43,14
32,6218,frisbee,is_amused,is_amused,ai,C,0.69,block1,43,15
32,5858,pool,confessed,confessed,ai,C,0.72,block1,43,16
32,10269,chili,established,established,ai,C,0.4,block1,43,17
32,5874,bmw,found_out,found_out,ai,C,0.59,block1,43,18
32,4596,horse,MC1,MC,ai,NonProj,0.01,block1,43,19
32,8026,poem,is_aware,is_aware,ai,C,0.54,block1,43,20
32,9514,tea,MC8,MC,projective,NonProj,0.36,block2,43,21
32,5787,poem,is_aware,is_aware,projective,C,0.82,block2,43,22
32,7618,pool,confessed,confessed,projective,C,0.89,block2,43,23
32,4859,damp,noticed,noticed,projective,C,0.81,block2,43,24
32,7508,nails,learned,learned,projective,C,0.66,block2,43,25
32,4746,frisbee,is_amused,is_amused,projective,C,0.9,block2,43,26
32,7043,swing,saw,saw,projective,C,0.75,block2,43,27
32,5506,zoo,MC4,MC,projective,NonProj,0,block2,43,28
32,6595,hat,MC7,MC,projective,NonProj,0.12,block2,43,29
32,4412,horse,MC1,MC,projective,NonProj,0.08,block2,43,30
32,8835,chili,established,established,projective,C,0.44,block2,43,31
32,8291,poodle,discovered,discovered,projective,C,0.57,block2,43,32
32,6034,yoga,revealed,revealed,projective,C,0.42,block2,43,33
32,3962,purple,MC5,MC,projective,NonProj,0.04,block2,43,34
32,4162,ditch,MC6,MC,projective,NonProj,0.06,block2,43,35
32,4610,cupcakes,MC3,MC,projective,NonProj,0.12,block2,43,36
32,5523,garage,realize,realize,projective,C,0.27,block2,43,37
32,3321,dancing,MC2,MC,projective,NonProj,0.15,block2,43,38
32,11438,picture,is_annoyed,is_annoyed,projective,C,0.72,block2,43,39
32,5787,bmw,found_out,found_out,projective,C,0.44,block2,43,40
34,11032,yoga,MC3,MC,ai,NonProj,1,block1,38,1
34,13636,ditch,discovered,discovered,ai,C,1,block1,38,2
34,10020,horse,found_out,found_out,ai,C,1,block1,38,3
34,13749,poem,realize,realize,ai,C,0.98,block1,38,4
34,8437,purple,MC5,MC,ai,NonProj,0.01,block1,38,5
34,4252,cupcakes,MC1,MC,ai,NonProj,0.02,block1,38,6
34,9431,chili,saw,saw,ai,C,1,block1,38,7
34,4832,poodle,MC4,MC,ai,NonProj,0.02,block1,38,8
34,12480,bmw,confessed,confessed,ai,C,1,block1,38,9
34,5847,picture,MC8,MC,ai,NonProj,0.02,block1,38,10
34,10152,tea,established,established,ai,C,0.98,block1,38,11
34,10384,swing,MC6,MC,ai,NonProj,0.02,block1,38,12
34,10248,garage,is_aware,is_aware,ai,C,0.99,block1,38,13
34,3518,nails,MC7,MC,ai,NonProj,0.02,block1,38,14
34,5368,frisbee,learned,learned,ai,C,0.97,block1,38,15
34,3672,hat,MC2,MC,ai,NonProj,0.01,block1,38,16
34,6448,dancing,is_annoyed,is_annoyed,ai,C,0.98,block1,38,17
34,11444,damp,revealed,revealed,ai,C,0.98,block1,38,18
34,5631,pool,noticed,noticed,ai,C,0.98,block1,38,19
34,6001,zoo,is_amused,is_amused,ai,C,0.99,block1,38,20
34,4318,picture,MC8,MC,projective,NonProj,0.02,block2,38,21
34,5127,bmw,confessed,confessed,projective,C,0.98,block2,38,22
34,8871,frisbee,learned,learned,projective,C,0.99,block2,38,23
34,3671,pool,noticed,noticed,projective,C,0.99,block2,38,24
34,4890,poem,realize,realize,projective,C,0.98,block2,38,25
34,6760,horse,found_out,found_out,projective,C,0.98,block2,38,26
34,3518,purple,MC5,MC,projective,NonProj,0.01,block2,38,27
34,4223,ditch,discovered,discovered,projective,C,0.99,block2,38,28
34,6121,chili,saw,saw,projective,C,0.97,block2,38,29
34,4217,garage,is_aware,is_aware,projective,C,0.97,block2,38,30
34,5997,zoo,is_amused,is_amused,projective,C,0.97,block2,38,31
34,3128,dancing,is_annoyed,is_annoyed,projective,C,0.97,block2,38,32
34,3458,damp,revealed,revealed,projective,C,0.98,block2,38,33
34,3696,yoga,MC3,MC,projective,NonProj,0.02,block2,38,34
34,4063,hat,MC2,MC,projective,NonProj,0,block2,38,35
34,6164,cupcakes,MC1,MC,projective,NonProj,0.02,block2,38,36
34,15696,tea,established,established,projective,C,0.79,block2,38,37
34,4352,poodle,MC4,MC,projective,NonProj,0.02,block2,38,38
34,6212,nails,MC7,MC,projective,NonProj,0.02,block2,38,39
34,6328,swing,MC6,MC,projective,NonProj,0.02,block2,38,40
35,5915,nails,MC8,MC,ai,NonProj,0.01,block1,38,1
35,5681,swing,MC6,MC,ai,NonProj,0.02,block1,38,2
35,12684,cupcakes,established,established,ai,C,0.15,block1,38,3
35,6799,hat,MC7,MC,ai,NonProj,0.02,block1,38,4
35,7506,poodle,is_annoyed,is_annoyed,ai,C,0.57,block1,38,5
35,11136,damp,is_amused,is_amused,ai,C,0.78,block1,38,6
35,7875,garage,noticed,noticed,ai,C,0.91,block1,38,7
35,14899,tea,discovered,discovered,ai,C,0.92,block1,38,8
35,11557,picture,realize,realize,ai,C,0.88,block1,38,9
35,5044,bmw,revealed,revealed,ai,C,0.86,block1,38,10
35,9338,horse,confessed,confessed,ai,C,0.93,block1,38,11
35,5854,frisbee,MC5,MC,ai,NonProj,0.01,block1,38,12
35,5520,poem,MC1,MC,ai,NonProj,0.07,block1,38,13
35,5386,yoga,saw,saw,ai,C,0.91,block1,38,14
35,4478,purple,MC2,MC,ai,NonProj,0.01,block1,38,15
35,2559,chili,MC4,MC,ai,NonProj,0.03,block1,38,16
35,3040,pool,MC3,MC,ai,NonProj,0.03,block1,38,17
35,8390,dancing,is_aware,is_aware,ai,C,0.92,block1,38,18
35,4065,zoo,found_out,found_out,ai,C,0.92,block1,38,19
35,3834,ditch,learned,learned,ai,C,0.93,block1,38,20
35,7591,zoo,found_out,found_out,projective,C,0.89,block2,38,21
35,3820,picture,realize,realize,projective,C,0.89,block2,38,22
35,3531,hat,MC7,MC,projective,NonProj,0.03,block2,38,23
35,2089,chili,MC4,MC,projective,NonProj,0.04,block2,38,24
35,2228,frisbee,MC5,MC,projective,NonProj,0.01,block2,38,25
35,4840,poodle,is_annoyed,is_annoyed,projective,C,0.96,block2,38,26
35,2285,yoga,saw,saw,projective,C,0.91,block2,38,27
35,2681,poem,MC1,MC,projective,NonProj,0.03,block2,38,28
35,4779,bmw,revealed,revealed,projective,C,0.94,block2,38,29
35,2361,horse,confessed,confessed,projective,C,0.93,block2,38,30
35,9712,ditch,learned,learned,projective,C,0.92,block2,38,31
35,3626,cupcakes,established,established,projective,C,0.85,block2,38,32
35,3476,swing,MC6,MC,projective,NonProj,0.03,block2,38,33
35,3320,purple,MC2,MC,projective,NonProj,0.05,block2,38,34
35,2462,nails,MC8,MC,projective,NonProj,0.04,block2,38,35
35,2090,pool,MC3,MC,projective,NonProj,0.02,block2,38,36
35,4178,tea,discovered,discovered,projective,C,0.83,block2,38,37
35,2314,damp,is_amused,is_amused,projective,C,0.88,block2,38,38
35,2548,garage,noticed,noticed,projective,C,0.87,block2,38,39
35,2034,dancing,is_aware,is_aware,projective,C,0.9,block2,38,40
36,12569,garage,discovered,discovered,projective,C,0.17,block1,25,1
36,4176,zoo,MC6,MC,projective,NonProj,0.12,block1,25,2
36,6657,damp,realize,realize,projective,C,0.75,block1,25,3
36,11683,poem,is_amused,is_amused,projective,C,0.72,block1,25,4
36,8469,swing,MC8,MC,projective,NonProj,0.82,block1,25,5
36,6776,picture,is_aware,is_aware,projective,C,0.89,block1,25,6
36,3882,dancing,is_annoyed,is_annoyed,projective,C,0.87,block1,25,7
36,5345,horse,MC1,MC,projective,NonProj,0.1,block1,25,8
36,5465,tea,MC4,MC,projective,NonProj,0.09,block1,25,9
36,5425,cupcakes,MC5,MC,projective,NonProj,0.08,block1,25,10
36,6398,purple,MC7,MC,projective,NonProj,0.15,block1,25,11
36,5594,ditch,revealed,revealed,projective,C,0.09,block1,25,12
36,8264,chili,noticed,noticed,projective,C,0.66,block1,25,13
36,6540,poodle,MC3,MC,projective,NonProj,0.14,block1,25,14
36,8580,hat,confessed,confessed,projective,C,0.89,block1,25,15
36,7249,nails,learned,learned,projective,C,0.97,block1,25,16
36,7326,pool,established,established,projective,C,0.62,block1,25,17
36,6435,bmw,found_out,found_out,projective,C,0.9,block1,25,18
36,4726,yoga,saw,saw,projective,C,0.81,block1,25,19
36,4681,frisbee,MC2,MC,projective,NonProj,0.14,block1,25,20
36,5646,damp,realize,realize,ai,C,0.28,block2,25,21
36,8570,cupcakes,MC5,MC,ai,NonProj,0,block2,25,22
36,6611,horse,MC1,MC,ai,NonProj,0.01,block2,25,23
36,8738,pool,established,established,ai,C,0.89,block2,25,24
36,5625,nails,learned,learned,ai,C,0.87,block2,25,25
36,5068,ditch,revealed,revealed,ai,C,0.88,block2,25,26
36,5210,frisbee,MC2,MC,ai,NonProj,0.01,block2,25,27
36,5238,swing,MC8,MC,ai,NonProj,0.02,block2,25,28
36,5011,poem,is_amused,is_amused,ai,C,0.92,block2,25,29
36,4857,chili,noticed,noticed,ai,C,0.92,block2,25,30
36,5106,picture,is_aware,is_aware,ai,C,0.92,block2,25,31
36,5912,tea,MC4,MC,ai,NonProj,0.02,block2,25,32
36,4585,garage,discovered,discovered,ai,C,0.01,block2,25,33
36,6415,yoga,saw,saw,ai,C,0,block2,25,34
36,4516,poodle,MC3,MC,ai,NonProj,0.01,block2,25,35
36,6654,bmw,found_out,found_out,ai,C,0.8,block2,25,36
36,4355,purple,MC7,MC,ai,NonProj,0,block2,25,37
36,5606,dancing,is_annoyed,is_annoyed,ai,C,0.82,block2,25,38
36,5942,zoo,MC6,MC,ai,NonProj,0.03,block2,25,39
36,10265,hat,confessed,confessed,ai,C,0.97,block2,25,40
37,4601,zoo,confessed,confessed,projective,C,0.03,block1,21,1
37,6437,cupcakes,MC1,MC,projective,NonProj,0.02,block1,21,2
37,7154,tea,MC5,MC,projective,NonProj,0.5,block1,21,3
37,4867,poem,established,established,projective,C,0.97,block1,21,4
37,5262,bmw,discovered,discovered,projective,C,0.98,block1,21,5
37,3417,swing,saw,saw,projective,C,0.98,block1,21,6
37,3731,frisbee,realize,realize,projective,C,0.97,block1,21,7
37,3232,damp,MC6,MC,projective,NonProj,0.01,block1,21,8
37,2949,hat,MC3,MC,projective,NonProj,0.02,block1,21,9
37,6407,chili,is_annoyed,is_annoyed,projective,C,0.97,block1,21,10
37,5251,yoga,is_aware,is_aware,projective,C,0.98,block1,21,11
37,4411,garage,revealed,revealed,projective,C,0.98,block1,21,12
37,6756,purple,found_out,found_out,projective,C,0.99,block1,21,13
37,4099,dancing,MC7,MC,projective,NonProj,0.02,block1,21,14
37,2927,pool,MC8,MC,projective,NonProj,0.03,block1,21,15
37,3796,horse,MC4,MC,projective,NonProj,0.02,block1,21,16
37,4848,picture,is_amused,is_amused,projective,C,0.97,block1,21,17
37,4672,ditch,noticed,noticed,projective,C,0.96,block1,21,18
37,3505,nails,learned,learned,projective,C,0.98,block1,21,19
37,3325,poodle,MC2,MC,projective,NonProj,0.02,block1,21,20
37,5383,cupcakes,MC1,MC,ai,NonProj,0.01,block2,21,21
37,6328,yoga,is_aware,is_aware,ai,C,0.96,block2,21,22
37,4824,poem,established,established,ai,C,0.99,block2,21,23
37,3515,nails,learned,learned,ai,C,0.99,block2,21,24
37,4331,purple,found_out,found_out,ai,C,0.97,block2,21,25
37,2999,tea,MC5,MC,ai,NonProj,0.02,block2,21,26
37,2526,hat,MC3,MC,ai,NonProj,0.03,block2,21,27
37,3480,bmw,discovered,discovered,ai,C,0.99,block2,21,28
37,6741,horse,MC4,MC,ai,NonProj,0.02,block2,21,29
37,2869,damp,MC6,MC,ai,NonProj,0.02,block2,21,30
37,4398,frisbee,realize,realize,ai,C,0.99,block2,21,31
37,5716,ditch,noticed,noticed,ai,C,1,block2,21,32
37,3387,garage,revealed,revealed,ai,C,0.98,block2,21,33
37,4397,picture,is_amused,is_amused,ai,C,0.98,block2,21,34
37,4312,dancing,MC7,MC,ai,NonProj,0.03,block2,21,35
37,3422,poodle,MC2,MC,ai,NonProj,0.02,block2,21,36
37,3985,zoo,confessed,confessed,ai,C,0.97,block2,21,37
37,5718,swing,saw,saw,ai,C,0.98,block2,21,38
37,3812,chili,is_annoyed,is_annoyed,ai,C,0.98,block2,21,39
37,6965,pool,MC8,MC,ai,NonProj,0.02,block2,21,40
38,12421,pool,discovered,discovered,ai,C,0.01,block1,39,1
38,7079,hat,noticed,noticed,ai,C,0.08,block1,39,2
38,5648,frisbee,MC6,MC,ai,NonProj,0.03,block1,39,3
38,5486,garage,MC8,MC,ai,NonProj,0.04,block1,39,4
38,5960,poodle,learned,learned,ai,C,0.95,block1,39,5
38,4535,ditch,MC4,MC,ai,NonProj,0.04,block1,39,6
38,6726,picture,revealed,revealed,ai,C,0.03,block1,39,7
38,5023,dancing,MC7,MC,ai,NonProj,0.03,block1,39,8
38,16510,zoo,MC5,MC,ai,NonProj,0.03,block1,39,9
38,6951,horse,saw,saw,ai,C,0.02,block1,39,10
38,3551,tea,MC3,MC,ai,NonProj,0.04,block1,39,11
38,2904,damp,is_annoyed,is_annoyed,ai,C,0.04,block1,39,12
38,7255,nails,realize,realize,ai,C,0.97,block1,39,13
38,3048,cupcakes,found_out,found_out,ai,C,0.03,block1,39,14
38,2879,swing,confessed,confessed,ai,C,0.0600000000000001,block1,39,15
38,6192,purple,established,established,ai,C,0.05,block1,39,16
38,3783,bmw,MC1,MC,ai,NonProj,0.05,block1,39,17
38,3519,chili,is_aware,is_aware,ai,C,0.03,block1,39,18
38,2423,poem,is_amused,is_amused,ai,C,0.04,block1,39,19
38,5704,yoga,MC2,MC,ai,NonProj,0.07,block1,39,20
38,10701,hat,noticed,noticed,projective,C,0.06,block2,39,21
38,6175,ditch,MC4,MC,projective,NonProj,0.04,block2,39,22
38,4031,horse,saw,saw,projective,C,0.02,block2,39,23
38,3551,picture,revealed,revealed,projective,C,0.08,block2,39,24
38,4448,yoga,MC2,MC,projective,NonProj,0.06,block2,39,25
38,6711,zoo,MC5,MC,projective,NonProj,0.04,block2,39,26
38,4400,pool,discovered,discovered,projective,C,0.99,block2,39,27
38,4655,swing,confessed,confessed,projective,C,0.04,block2,39,28
38,9991,damp,is_annoyed,is_annoyed,projective,C,0.93,block2,39,29
38,9255,dancing,MC7,MC,projective,NonProj,0.04,block2,39,30
38,9031,cupcakes,found_out,found_out,projective,C,0.97,block2,39,31
38,5528,frisbee,MC6,MC,projective,NonProj,0.03,block2,39,32
38,2519,poem,is_amused,is_amused,projective,C,0.07,block2,39,33
38,3095,garage,MC8,MC,projective,NonProj,0.94,block2,39,34
38,4088,purple,established,established,projective,C,0.97,block2,39,35
38,5447,nails,realize,realize,projective,C,0.02,block2,39,36
38,3088,tea,MC3,MC,projective,NonProj,0.97,block2,39,37
38,2031,chili,is_aware,is_aware,projective,C,0.96,block2,39,38
38,2096,poodle,learned,learned,projective,C,0.92,block2,39,39
38,2583,bmw,MC1,MC,projective,NonProj,0.77,block2,39,40
39,9790,damp,MC6,MC,ai,NonProj,0.02,block1,29,1
39,15887,tea,confessed,confessed,ai,C,0.01,block1,29,2
39,10537,swing,is_amused,is_amused,ai,C,0.97,block1,29,3
39,8313,frisbee,discovered,discovered,ai,C,0.99,block1,29,4
39,6422,chili,found_out,found_out,ai,C,1,block1,29,5
39,5958,purple,MC1,MC,ai,NonProj,0.03,block1,29,6
39,6505,garage,is_aware,is_aware,ai,C,1,block1,29,7
39,3673,zoo,MC2,MC,ai,NonProj,0.03,block1,29,8
39,3635,poodle,MC8,MC,ai,NonProj,0.03,block1,29,9
39,7273,cupcakes,saw,saw,ai,C,0.97,block1,29,10
39,5908,ditch,established,established,ai,C,0.99,block1,29,11
39,11361,poem,MC4,MC,ai,NonProj,0.02,block1,29,12
39,6634,horse,realize,realize,ai,C,0.97,block1,29,13
39,6059,pool,is_annoyed,is_annoyed,ai,C,1,block1,29,14
39,3842,dancing,noticed,noticed,ai,C,0.98,block1,29,15
39,4270,yoga,MC5,MC,ai,NonProj,0.04,block1,29,16
39,6855,bmw,learned,learned,ai,C,0.97,block1,29,17
39,5557,nails,revealed,revealed,ai,C,0.96,block1,29,18
39,8541,picture,MC3,MC,ai,NonProj,0.01,block1,29,19
39,3752,hat,MC7,MC,ai,NonProj,0,block1,29,20
39,10366,pool,is_annoyed,is_annoyed,projective,C,1,block2,29,21
39,5475,picture,MC3,MC,projective,NonProj,0.03,block2,29,22
39,3956,poem,MC4,MC,projective,NonProj,0.03,block2,29,23
39,5287,frisbee,discovered,discovered,projective,C,0.98,block2,29,24
39,4237,purple,MC1,MC,projective,NonProj,0.01,block2,29,25
39,7907,ditch,established,established,projective,C,0.99,block2,29,26
39,4407,yoga,MC5,MC,projective,NonProj,0.01,block2,29,27
39,4622,chili,found_out,found_out,projective,C,0.94,block2,29,28
39,7281,cupcakes,saw,saw,projective,C,0.99,block2,29,29
39,7132,tea,confessed,confessed,projective,C,0.99,block2,29,30
39,3520,poodle,MC8,MC,projective,NonProj,0.03,block2,29,31
39,6640,garage,is_aware,is_aware,projective,C,0.96,block2,29,32
39,7357,damp,MC6,MC,projective,NonProj,0.03,block2,29,33
39,5507,hat,MC7,MC,projective,NonProj,0,block2,29,34
39,3293,zoo,MC2,MC,projective,NonProj,0.02,block2,29,35
39,3814,horse,realize,realize,projective,C,0.96,block2,29,36
39,3403,dancing,noticed,noticed,projective,C,0.98,block2,29,37
39,5219,swing,is_amused,is_amused,projective,C,0.98,block2,29,38
39,4160,bmw,learned,learned,projective,C,1,block2,29,39
39,5367,nails,revealed,revealed,projective,C,0.96,block2,29,40
40,20559,poem,is_amused,is_amused,projective,C,0.54,block1,25,1
40,8117,yoga,confessed,confessed,projective,C,0.01,block1,25,2
40,6684,chili,learned,learned,projective,C,1,block1,25,3
40,7580,bmw,is_annoyed,is_annoyed,projective,C,1,block1,25,4
40,3887,zoo,is_aware,is_aware,projective,C,1,block1,25,5
40,4157,cupcakes,MC1,MC,projective,NonProj,0,block1,25,6
40,5121,nails,MC7,MC,projective,NonProj,0,block1,25,7
40,4530,garage,MC8,MC,projective,NonProj,0,block1,25,8
40,3341,dancing,MC5,MC,projective,NonProj,0,block1,25,9
40,8453,swing,established,established,projective,C,0.56,block1,25,10
40,5039,hat,saw,saw,projective,C,1,block1,25,11
40,4714,purple,MC4,MC,projective,NonProj,0,block1,25,12
40,4462,horse,realize,realize,projective,C,1,block1,25,13
40,4688,pool,noticed,noticed,projective,C,1,block1,25,14
40,11054,frisbee,discovered,discovered,projective,C,1,block1,25,15
40,4708,poodle,found_out,found_out,projective,C,1,block1,25,16
40,4178,tea,MC3,MC,projective,NonProj,0,block1,25,17
40,5427,ditch,MC2,MC,projective,NonProj,0.01,block1,25,18
40,7771,picture,MC6,MC,projective,NonProj,0,block1,25,19
40,10384,damp,revealed,revealed,projective,C,0.51,block1,25,20
40,7029,frisbee,discovered,discovered,ai,C,1,block2,25,21
40,4443,hat,saw,saw,ai,C,1,block2,25,22
40,3490,damp,revealed,revealed,ai,C,1,block2,25,23
40,3227,bmw,is_annoyed,is_annoyed,ai,C,0.98,block2,25,24
40,4823,tea,MC3,MC,ai,NonProj,0.01,block2,25,25
40,3892,purple,MC4,MC,ai,NonProj,0,block2,25,26
40,3011,cupcakes,MC1,MC,ai,NonProj,0,block2,25,27
40,2963,nails,MC7,MC,ai,NonProj,0,block2,25,28
40,2976,horse,realize,realize,ai,C,1,block2,25,29
40,3994,swing,established,established,ai,C,1,block2,25,30
40,5072,yoga,confessed,confessed,ai,C,0.99,block2,25,31
40,3377,garage,MC8,MC,ai,NonProj,0,block2,25,32
40,5476,picture,MC6,MC,ai,NonProj,0,block2,25,33
40,6161,chili,learned,learned,ai,C,1,block2,25,34
40,3843,pool,noticed,noticed,ai,C,1,block2,25,35
40,3052,zoo,is_aware,is_aware,ai,C,1,block2,25,36
40,2830,poodle,found_out,found_out,ai,C,1,block2,25,37
40,3186,ditch,MC2,MC,ai,NonProj,0,block2,25,38
40,4324,poem,is_amused,is_amused,ai,C,1,block2,25,39
40,22576,dancing,MC5,MC,ai,NonProj,0,block2,25,40
41,7078,damp,saw,saw,ai,C,0.93,block1,36,1
41,3998,horse,MC5,MC,ai,NonProj,0,block1,36,2
41,5073,zoo,learned,learned,ai,C,1,block1,36,3
41,6766,poem,is_amused,is_amused,ai,C,1,block1,36,4
41,4025,chili,is_aware,is_aware,ai,C,1,block1,36,5
41,5024,ditch,MC1,MC,ai,NonProj,0,block1,36,6
41,4864,swing,MC2,MC,ai,NonProj,0,block1,36,7
41,5087,picture,MC8,MC,ai,NonProj,0,block1,36,8
41,11777,yoga,established,established,ai,C,0.69,block1,36,9
41,4564,dancing,MC3,MC,ai,NonProj,0,block1,36,10
41,4072,bmw,MC6,MC,ai,NonProj,0,block1,36,11
41,3294,purple,found_out,found_out,ai,C,1,block1,36,12
41,4920,cupcakes,MC7,MC,ai,NonProj,0,block1,36,13
41,7902,nails,confessed,confessed,ai,C,0.85,block1,36,14
41,4840,hat,realize,realize,ai,C,1,block1,36,15
41,5416,poodle,revealed,revealed,ai,C,1,block1,36,16
41,4104,frisbee,discovered,discovered,ai,C,1,block1,36,17
41,4018,tea,MC4,MC,ai,NonProj,0,block1,36,18
41,4293,garage,noticed,noticed,ai,C,1,block1,36,19
41,4903,pool,is_annoyed,is_annoyed,ai,C,1,block1,36,20
41,7218,chili,is_aware,is_aware,projective,C,0.96,block2,36,21
41,5575,poem,is_amused,is_amused,projective,C,0.95,block2,36,22
41,6513,hat,realize,realize,projective,C,0.96,block2,36,23
41,2880,garage,noticed,noticed,projective,C,0.96,block2,36,24
41,4807,frisbee,discovered,discovered,projective,C,0.96,block2,36,25
41,4342,zoo,learned,learned,projective,C,0.96,block2,36,26
41,6432,picture,MC8,MC,projective,NonProj,0.04,block2,36,27
41,7918,poodle,revealed,revealed,projective,C,0.96,block2,36,28
41,4400,bmw,MC6,MC,projective,NonProj,0.03,block2,36,29
41,4591,pool,is_annoyed,is_annoyed,projective,C,0.96,block2,36,30
41,4183,horse,MC5,MC,projective,NonProj,0.03,block2,36,31
41,13035,swing,MC2,MC,projective,NonProj,0.03,block2,36,32
41,6565,purple,found_out,found_out,projective,C,0.95,block2,36,33
41,4175,ditch,MC1,MC,projective,NonProj,0.04,block2,36,34
41,10357,yoga,established,established,projective,C,0.39,block2,36,35
41,9572,damp,saw,saw,projective,C,0.95,block2,36,36
41,3703,cupcakes,MC7,MC,projective,NonProj,0.04,block2,36,37
41,4912,tea,MC4,MC,projective,NonProj,0.04,block2,36,38
41,3726,dancing,MC3,MC,projective,NonProj,0.04,block2,36,39
41,5705,nails,confessed,confessed,projective,C,0.91,block2,36,40
42,10297,picture,MC2,MC,ai,NonProj,0.0600000000000001,block1,40,1
42,14219,tea,realize,realize,ai,C,0.86,block1,40,2
42,6535,chili,noticed,noticed,ai,C,0.89,block1,40,3
42,3206,pool,discovered,discovered,ai,C,0.81,block1,40,4
42,5900,zoo,revealed,revealed,ai,C,0.8,block1,40,5
42,3776,bmw,MC6,MC,ai,NonProj,0.01,block1,40,6
42,3221,ditch,confessed,confessed,ai,C,0.96,block1,40,7
42,2778,poodle,is_aware,is_aware,ai,C,0.88,block1,40,8
42,2864,poem,MC5,MC,ai,NonProj,0.08,block1,40,9
42,3401,nails,saw,saw,ai,C,0.85,block1,40,10
42,2238,cupcakes,MC4,MC,ai,NonProj,0.12,block1,40,11
42,2655,dancing,MC8,MC,ai,NonProj,0.18,block1,40,12
42,10329,garage,learned,learned,ai,C,0.86,block1,40,13
42,2630,horse,MC7,MC,ai,NonProj,0.17,block1,40,14
42,2343,damp,MC3,MC,ai,NonProj,0.16,block1,40,15
42,3026,yoga,is_annoyed,is_annoyed,ai,C,0.83,block1,40,16
42,2039,purple,established,established,ai,C,0.8,block1,40,17
42,3440,swing,MC1,MC,ai,NonProj,0.16,block1,40,18
42,2808,frisbee,is_amused,is_amused,ai,C,0.69,block1,40,19
42,1907,hat,found_out,found_out,ai,C,0.76,block1,40,20
42,2310,horse,MC7,MC,projective,NonProj,0.95,block2,40,21
42,1719,hat,found_out,found_out,projective,C,0.21,block2,40,22
42,6793,picture,MC2,MC,projective,NonProj,0.15,block2,40,23
42,9657,yoga,is_annoyed,is_annoyed,projective,C,0.86,block2,40,24
42,3976,purple,established,established,projective,C,0.88,block2,40,25
42,2654,zoo,revealed,revealed,projective,C,0.9,block2,40,26
42,3020,poem,MC5,MC,projective,NonProj,0.2,block2,40,27
42,1674,bmw,MC6,MC,projective,NonProj,0.15,block2,40,28
42,2971,poodle,is_aware,is_aware,projective,C,0.77,block2,40,29
42,2127,damp,MC3,MC,projective,NonProj,0.27,block2,40,30
42,3804,frisbee,is_amused,is_amused,projective,C,0.81,block2,40,31
42,3961,swing,MC1,MC,projective,NonProj,0.3,block2,40,32
42,2155,cupcakes,MC4,MC,projective,NonProj,0.17,block2,40,33
42,2279,pool,discovered,discovered,projective,C,0.86,block2,40,34
42,2147,ditch,confessed,confessed,projective,C,0.81,block2,40,35
42,1937,dancing,MC8,MC,projective,NonProj,0.23,block2,40,36
42,1916,chili,noticed,noticed,projective,C,0.73,block2,40,37
42,1991,garage,learned,learned,projective,C,0.76,block2,40,38
42,1938,nails,saw,saw,projective,C,0.78,block2,40,39
42,1548,tea,realize,realize,projective,C,0.75,block2,40,40
43,18245,horse,found_out,found_out,ai,C,0.84,block1,44,1
43,7154,yoga,MC6,MC,ai,NonProj,0.02,block1,44,2
43,18484,poem,is_aware,is_aware,ai,C,1,block1,44,3
43,10631,picture,MC3,MC,ai,NonProj,0.01,block1,44,4
43,8786,damp,noticed,noticed,ai,C,0.98,block1,44,5
43,6964,purple,discovered,discovered,ai,C,0.98,block1,44,6
43,4612,chili,MC4,MC,ai,NonProj,0.01,block1,44,7
43,9078,swing,MC2,MC,ai,NonProj,0.02,block1,44,8
43,9214,hat,is_amused,is_amused,ai,C,0.99,block1,44,9
43,8899,bmw,realize,realize,ai,C,0.99,block1,44,10
43,16448,zoo,revealed,revealed,ai,C,0.82,block1,44,11
43,16582,nails,learned,learned,ai,C,0.31,block1,44,12
43,7369,tea,MC1,MC,ai,NonProj,0.01,block1,44,13
43,5153,poodle,MC7,MC,ai,NonProj,0.01,block1,44,14
43,8561,cupcakes,established,established,ai,C,0.51,block1,44,15
43,15030,pool,saw,saw,ai,C,0.79,block1,44,16
43,13702,garage,is_annoyed,is_annoyed,ai,C,0.98,block1,44,17
43,6042,dancing,MC5,MC,ai,NonProj,0.01,block1,44,18
43,10665,frisbee,confessed,confessed,ai,C,0.99,block1,44,19
43,7211,ditch,MC8,MC,ai,NonProj,0.01,block1,44,20
43,8875,hat,is_amused,is_amused,projective,C,0.99,block2,44,21
43,6446,dancing,MC5,MC,projective,NonProj,0.01,block2,44,22
43,11880,horse,found_out,found_out,projective,C,0.75,block2,44,23
43,10440,pool,saw,saw,projective,C,0.89,block2,44,24
43,5457,tea,MC1,MC,projective,NonProj,0.02,block2,44,25
43,6108,swing,MC2,MC,projective,NonProj,0.01,block2,44,26
43,7898,frisbee,confessed,confessed,projective,C,0.98,block2,44,27
43,7189,zoo,revealed,revealed,projective,C,0.49,block2,44,28
43,4860,chili,MC4,MC,projective,NonProj,0.01,block2,44,29
43,9056,damp,noticed,noticed,projective,C,0.99,block2,44,30
43,4579,poem,is_aware,is_aware,projective,C,1,block2,44,31
43,4904,picture,MC3,MC,projective,NonProj,0,block2,44,32
43,4208,poodle,MC7,MC,projective,NonProj,0.01,block2,44,33
43,6761,garage,is_annoyed,is_annoyed,projective,C,0.99,block2,44,34
43,8190,nails,learned,learned,projective,C,0.48,block2,44,35
43,4287,bmw,realize,realize,projective,C,0.99,block2,44,36
43,6738,cupcakes,established,established,projective,C,0.01,block2,44,37
43,3454,ditch,MC8,MC,projective,NonProj,0.01,block2,44,38
43,4106,yoga,MC6,MC,projective,NonProj,0.01,block2,44,39
43,3825,purple,discovered,discovered,projective,C,0.99,block2,44,40
44,15222,poem,noticed,noticed,ai,C,1,block1,32,1
44,7081,cupcakes,established,established,ai,C,0.03,block1,32,2
44,6250,zoo,revealed,revealed,ai,C,0.94,block1,32,3
44,8029,chili,confessed,confessed,ai,C,0.33,block1,32,4
44,10359,bmw,found_out,found_out,ai,C,0.98,block1,32,5
44,7118,nails,discovered,discovered,ai,C,0.75,block1,32,6
44,6165,poodle,MC1,MC,ai,NonProj,0,block1,32,7
44,5305,picture,MC2,MC,ai,NonProj,0,block1,32,8
44,5725,garage,saw,saw,ai,C,0.98,block1,32,9
44,5644,swing,MC4,MC,ai,NonProj,0.02,block1,32,10
44,6220,horse,MC7,MC,ai,NonProj,0.01,block1,32,11
44,7221,purple,is_amused,is_amused,ai,C,0.99,block1,32,12
44,6438,yoga,is_annoyed,is_annoyed,ai,C,0.97,block1,32,13
44,5658,hat,learned,learned,ai,C,0.98,block1,32,14
44,4328,dancing,MC6,MC,ai,NonProj,0.01,block1,32,15
44,7744,pool,realize,realize,ai,C,0.97,block1,32,16
44,5839,ditch,MC8,MC,ai,NonProj,0.03,block1,32,17
44,10770,tea,is_aware,is_aware,ai,C,0.99,block1,32,18
44,20718,damp,MC3,MC,ai,NonProj,0.01,block1,32,19
44,4276,frisbee,MC5,MC,ai,NonProj,0.02,block1,32,20
44,74025,damp,MC3,MC,projective,NonProj,0,block2,32,21
44,5172,zoo,revealed,revealed,projective,C,0.98,block2,32,22
44,6478,yoga,is_annoyed,is_annoyed,projective,C,0.01,block2,32,23
44,3795,hat,learned,learned,projective,C,0.98,block2,32,24
44,6618,ditch,MC8,MC,projective,NonProj,0.48,block2,32,25
44,6110,garage,saw,saw,projective,C,0.99,block2,32,26
44,6647,tea,is_aware,is_aware,projective,C,1,block2,32,27
44,5317,dancing,MC6,MC,projective,NonProj,0.01,block2,32,28
44,5761,cupcakes,established,established,projective,C,0.03,block2,32,29
44,3761,pool,realize,realize,projective,C,0.99,block2,32,30
44,4611,poem,noticed,noticed,projective,C,0.98,block2,32,31
44,7830,horse,MC7,MC,projective,NonProj,0.03,block2,32,32
44,3845,purple,is_amused,is_amused,projective,C,0.97,block2,32,33
44,4497,chili,confessed,confessed,projective,C,0.99,block2,32,34
44,5036,picture,MC2,MC,projective,NonProj,0.01,block2,32,35
44,5691,swing,MC4,MC,projective,NonProj,0.03,block2,32,36
44,3699,bmw,found_out,found_out,projective,C,0.97,block2,32,37
44,4193,frisbee,MC5,MC,projective,NonProj,0.02,block2,32,38
44,5127,poodle,MC1,MC,projective,NonProj,0.02,block2,32,39
44,4920,nails,discovered,discovered,projective,C,0.97,block2,32,40
45,8200,cupcakes,MC1,MC,ai,NonProj,0,block1,33,1
45,8122,picture,established,established,ai,C,0.23,block1,33,2
45,6073,swing,learned,learned,ai,C,0.92,block1,33,3
45,3618,dancing,MC3,MC,ai,NonProj,0.01,block1,33,4
45,5027,garage,MC8,MC,ai,NonProj,0.01,block1,33,5
45,3244,hat,MC6,MC,ai,NonProj,0.01,block1,33,6
45,2966,frisbee,MC2,MC,ai,NonProj,0.07,block1,33,7
45,3100,chili,MC4,MC,ai,NonProj,0.01,block1,33,8
45,6537,bmw,saw,saw,ai,C,0.9,block1,33,9
45,4701,purple,noticed,noticed,ai,C,0.91,block1,33,10
45,7374,poem,confessed,confessed,ai,C,0.91,block1,33,11
45,3755,poodle,discovered,discovered,ai,C,0.95,block1,33,12
45,4460,damp,is_amused,is_amused,ai,C,0.92,block1,33,13
45,4085,nails,revealed,revealed,ai,C,0.95,block1,33,14
45,3379,pool,realize,realize,ai,C,0.93,block1,33,15
45,4844,ditch,MC7,MC,ai,NonProj,0.02,block1,33,16
45,3280,zoo,is_aware,is_aware,ai,C,0.92,block1,33,17
45,3796,yoga,found_out,found_out,ai,C,0.97,block1,33,18
45,4607,tea,is_annoyed,is_annoyed,ai,C,0.96,block1,33,19
45,3282,horse,MC5,MC,ai,NonProj,0.02,block1,33,20
45,4732,picture,established,established,projective,C,0.09,block2,33,21
45,2990,hat,MC6,MC,projective,NonProj,0.04,block2,33,22
45,6472,damp,is_amused,is_amused,projective,C,0.94,block2,33,23
45,3352,cupcakes,MC1,MC,projective,NonProj,0.04,block2,33,24
45,4078,bmw,saw,saw,projective,C,0.91,block2,33,25
45,4402,swing,learned,learned,projective,C,0.91,block2,33,26
45,3778,pool,realize,realize,projective,C,0.93,block2,33,27
45,2880,chili,MC4,MC,projective,NonProj,0.02,block2,33,28
45,4600,zoo,is_aware,is_aware,projective,C,0.92,block2,33,29
45,6346,nails,revealed,revealed,projective,C,0.73,block2,33,30
45,3208,garage,MC8,MC,projective,NonProj,0.03,block2,33,31
45,3970,yoga,found_out,found_out,projective,C,0.93,block2,33,32
45,3424,poodle,discovered,discovered,projective,C,0.95,block2,33,33
45,3314,purple,noticed,noticed,projective,C,0.97,block2,33,34
45,2800,frisbee,MC2,MC,projective,NonProj,0.03,block2,33,35
45,5395,poem,confessed,confessed,projective,C,0.8,block2,33,36
45,4363,tea,is_annoyed,is_annoyed,projective,C,0.94,block2,33,37
45,3488,horse,MC5,MC,projective,NonProj,0.03,block2,33,38
45,5004,dancing,MC3,MC,projective,NonProj,0.05,block2,33,39
45,4724,ditch,MC7,MC,projective,NonProj,0.02,block2,33,40
48,11601,cupcakes,revealed,revealed,projective,C,1,block1,38,1
48,8016,poem,MC3,MC,projective,NonProj,0.05,block1,38,2
48,12427,zoo,saw,saw,projective,C,0.96,block1,38,3
48,5638,horse,MC6,MC,projective,NonProj,0.02,block1,38,4
48,5985,bmw,MC1,MC,projective,NonProj,0.02,block1,38,5
48,4665,hat,MC8,MC,projective,NonProj,0.02,block1,38,6
48,7500,tea,learned,learned,projective,C,0.97,block1,38,7
48,5548,pool,MC4,MC,projective,NonProj,0.02,block1,38,8
48,8466,yoga,is_aware,is_aware,projective,C,0.97,block1,38,9
48,7070,dancing,is_annoyed,is_annoyed,projective,C,0.95,block1,38,10
48,9380,ditch,MC5,MC,projective,NonProj,0.02,block1,38,11
48,6050,chili,established,established,projective,C,0.12,block1,38,12
48,10818,swing,found_out,found_out,projective,C,1,block1,38,13
48,4796,picture,MC7,MC,projective,NonProj,0.02,block1,38,14
48,6468,nails,confessed,confessed,projective,C,0.18,block1,38,15
48,8765,garage,is_amused,is_amused,projective,C,1,block1,38,16
48,8072,damp,discovered,discovered,projective,C,1,block1,38,17
48,8049,frisbee,noticed,noticed,projective,C,1,block1,38,18
48,6130,purple,realize,realize,projective,C,1,block1,38,19
48,3367,poodle,MC2,MC,projective,NonProj,0.03,block1,38,20
48,10550,damp,discovered,discovered,ai,C,0.91,block2,38,21
48,8283,swing,found_out,found_out,ai,C,0.95,block2,38,22
48,10652,nails,confessed,confessed,ai,C,0.11,block2,38,23
48,4780,poodle,MC2,MC,ai,NonProj,0,block2,38,24
48,3551,horse,MC6,MC,ai,NonProj,0,block2,38,25
48,6130,tea,learned,learned,ai,C,1,block2,38,26
48,8766,yoga,is_aware,is_aware,ai,C,1,block2,38,27
48,4753,frisbee,noticed,noticed,ai,C,1,block2,38,28
48,5249,picture,MC7,MC,ai,NonProj,0,block2,38,29
48,4952,chili,established,established,ai,C,1,block2,38,30
48,5346,purple,realize,realize,ai,C,1,block2,38,31
48,4034,ditch,MC5,MC,ai,NonProj,0,block2,38,32
48,3425,hat,MC8,MC,ai,NonProj,0,block2,38,33
48,4581,cupcakes,revealed,revealed,ai,C,1,block2,38,34
48,3596,bmw,MC1,MC,ai,NonProj,0,block2,38,35
48,4532,poem,MC3,MC,ai,NonProj,0,block2,38,36
48,4451,pool,MC4,MC,ai,NonProj,0,block2,38,37
48,3698,dancing,is_annoyed,is_annoyed,ai,C,1,block2,38,38
48,4135,garage,is_amused,is_amused,ai,C,1,block2,38,39
48,6022,zoo,saw,saw,ai,C,1,block2,38,40
49,6048,tea,saw,saw,projective,C,0.94,block1,33,1
49,4463,picture,MC1,MC,projective,NonProj,0.07,block1,33,2
49,7913,poem,is_aware,is_aware,projective,C,1,block1,33,3
49,7462,yoga,established,established,projective,C,0.22,block1,33,4
49,5194,bmw,revealed,revealed,projective,C,0.96,block1,33,5
49,4410,purple,found_out,found_out,projective,C,1,block1,33,6
49,6677,horse,noticed,noticed,projective,C,1,block1,33,7
49,6612,chili,is_amused,is_amused,projective,C,0.09,block1,33,8
49,5636,garage,learned,learned,projective,C,1,block1,33,9
49,4541,pool,MC3,MC,projective,NonProj,0.01,block1,33,10
49,4790,zoo,discovered,discovered,projective,C,0.98,block1,33,11
49,3798,hat,MC6,MC,projective,NonProj,0,block1,33,12
49,8300,cupcakes,realize,realize,projective,C,0.89,block1,33,13
49,4965,nails,is_annoyed,is_annoyed,projective,C,0.9,block1,33,14
49,3572,dancing,MC8,MC,projective,NonProj,0,block1,33,15
49,3817,ditch,MC7,MC,projective,NonProj,0,block1,33,16
49,5222,damp,confessed,confessed,projective,C,1,block1,33,17
49,3718,frisbee,MC4,MC,projective,NonProj,0,block1,33,18
49,4632,poodle,MC2,MC,projective,NonProj,0.04,block1,33,19
49,2835,swing,MC5,MC,projective,NonProj,0.05,block1,33,20
49,9725,picture,MC1,MC,ai,NonProj,0.01,block2,33,21
49,4398,hat,MC6,MC,ai,NonProj,0.02,block2,33,22
49,5167,cupcakes,realize,realize,ai,C,0.92,block2,33,23
49,3955,pool,MC3,MC,ai,NonProj,0.0600000000000001,block2,33,24
49,5192,zoo,discovered,discovered,ai,C,0.98,block2,33,25
49,4066,purple,found_out,found_out,ai,C,0.97,block2,33,26
49,6030,damp,confessed,confessed,ai,C,0.92,block2,33,27
49,7002,swing,MC5,MC,ai,NonProj,0,block2,33,28
49,3058,poodle,MC2,MC,ai,NonProj,0.01,block2,33,29
49,4009,poem,is_aware,is_aware,ai,C,0.98,block2,33,30
49,4690,nails,is_annoyed,is_annoyed,ai,C,0.95,block2,33,31
49,5696,garage,learned,learned,ai,C,0.98,block2,33,32
49,4686,chili,is_amused,is_amused,ai,C,0.97,block2,33,33
49,4168,dancing,MC8,MC,ai,NonProj,0,block2,33,34
49,4611,tea,saw,saw,ai,C,0.94,block2,33,35
49,3342,ditch,MC7,MC,ai,NonProj,0,block2,33,36
49,4155,frisbee,MC4,MC,ai,NonProj,0,block2,33,37
49,5675,bmw,revealed,revealed,ai,C,0.91,block2,33,38
49,4320,horse,noticed,noticed,ai,C,0.97,block2,33,39
49,10293,yoga,established,established,ai,C,0.52,block2,33,40
50,24958,poem,established,established,ai,C,0.18,block1,23,1
50,9062,nails,found_out,found_out,ai,C,0.68,block1,23,2
50,8617,chili,revealed,revealed,ai,C,0.14,block1,23,3
50,49635,dancing,confessed,confessed,ai,C,0.14,block1,23,4
50,13477,yoga,is_aware,is_aware,ai,C,0.92,block1,23,5
50,7684,pool,MC7,MC,ai,NonProj,0.02,block1,23,6
50,11596,swing,saw,saw,ai,C,0.95,block1,23,7
50,7986,picture,MC3,MC,ai,NonProj,0.01,block1,23,8
50,5338,ditch,MC2,MC,ai,NonProj,0.05,block1,23,9
50,6701,horse,MC1,MC,ai,NonProj,0.04,block1,23,10
50,6969,tea,MC5,MC,ai,NonProj,0.03,block1,23,11
50,15383,frisbee,discovered,discovered,ai,C,0.96,block1,23,12
50,3748,damp,MC6,MC,ai,NonProj,0.05,block1,23,13
50,8175,purple,learned,learned,ai,C,0.9,block1,23,14
50,6432,hat,MC4,MC,ai,NonProj,0.1,block1,23,15
50,9243,bmw,realize,realize,ai,C,0.88,block1,23,16
50,16445,cupcakes,is_annoyed,is_annoyed,ai,C,0.94,block1,23,17
50,30873,zoo,MC8,MC,ai,NonProj,0.1,block1,23,18
50,5180,garage,is_amused,is_amused,ai,C,0.92,block1,23,19
50,3780,poodle,noticed,noticed,ai,C,0.9,block1,23,20
50,10378,frisbee,discovered,discovered,projective,C,0.62,block2,23,21
50,5699,damp,MC6,MC,projective,NonProj,0.04,block2,23,22
50,9500,ditch,MC2,MC,projective,NonProj,0.03,block2,23,23
50,22575,chili,revealed,revealed,projective,C,0.81,block2,23,24
