workerid,rt,content,trigger,short_trigger,question_type,trigger_class,response,block,age,trial
2,10605,bmw,possNP,possNP,ai,B,1,block1,22,1
2,9195,play,stop,stop,ai,C,0,block1,22,2
2,6027,olives,annoyed,annoyed,ai,C,1,block1,22,3
2,3526,cupcakes,MC1,MC,ai,NonProj,0,block1,22,4
2,7222,aunt,MC4,MC,ai,NonProj,0,block1,22,5
2,7889,nails,discover,discover,ai,C,1,block1,22,6
2,4845,muffins,MC6,MC,ai,NonProj,0,block1,22,7
2,3923,boyfriend,NRRC,NRRC,ai,B,1,block1,22,8
2,4497,soccer,MC2,MC,ai,NonProj,0,block1,22,9
2,6681,alcatraz,know,know,ai,C,1,block1,22,10
2,6024,veggie,NomApp,NomApp,ai,B,1,block1,22,11
2,5488,hat,MC5,MC,ai,NonProj,0,block1,22,12
2,18697,kids,MC3,MC,ai,NonProj,0,block1,22,13
2,12366,pizza,only,only,ai,C,0,block1,22,14
2,3173,stuntman,stupid,stupid,ai,C,1,block1,22,15
2,3799,cupcakes,MC1,MC,projective,NonProj,0,block2,22,16
2,3173,aunt,MC4,MC,projective,NonProj,0,block2,22,17
2,2855,hat,MC5,MC,projective,NonProj,0,block2,22,18
2,5910,play,stop,stop,projective,C,1,block2,22,19
2,4205,bmw,possNP,possNP,projective,B,1,block2,22,20
2,3422,soccer,MC2,MC,projective,NonProj,0,block2,22,21
2,4871,olives,annoyed,annoyed,projective,C,1,block2,22,22
2,3242,alcatraz,know,know,projective,C,1,block2,22,23
2,4505,kids,MC3,MC,projective,NonProj,0,block2,22,24
2,3098,stuntman,stupid,stupid,projective,C,1,block2,22,25
2,6107,muffins,MC6,MC,projective,NonProj,0,block2,22,26
2,10670,pizza,only,only,projective,C,1,block2,22,27
2,5888,boyfriend,NRRC,NRRC,projective,B,1,block2,22,28
2,6815,nails,discover,discover,projective,C,1,block2,22,29
2,16840,veggie,NomApp,NomApp,projective,B,1,block2,22,30
3,5483,pizza,only,only,ai,C,0.11,block1,30,1
3,2979,boyfriend,MC1,MC,ai,NonProj,0,block1,30,2
3,2235,cupcakes,MC6,MC,ai,NonProj,0,block1,30,3
3,2415,stuntman,MC4,MC,ai,NonProj,0.02,block1,30,4
3,4559,alcatraz,NRRC,NRRC,ai,B,0.99,block1,30,5
3,2501,play,MC5,MC,ai,NonProj,0,block1,30,6
3,3935,hat,annoyed,annoyed,ai,C,0.97,block1,30,7
3,3042,olives,MC2,MC,ai,NonProj,0.01,block1,30,8
3,3479,ballet,stop,stop,ai,C,0.97,block1,30,9
3,8305,nails,stupid,stupid,ai,C,0.97,block1,30,10
3,2306,muffins,MC3,MC,ai,NonProj,0.04,block1,30,11
3,3545,cheat,know,know,ai,C,0.96,block1,30,12
3,3347,bmw,possNP,possNP,ai,B,0.99,block1,30,13
3,3466,veggie,NomApp,NomApp,ai,B,0.99,block1,30,14
3,4283,soccer,discover,discover,ai,C,0.97,block1,30,15
3,5878,veggie,NomApp,NomApp,projective,B,0.98,block2,30,16
3,2893,stuntman,MC4,MC,projective,NonProj,0.02,block2,30,17
3,2578,cupcakes,MC6,MC,projective,NonProj,0.02,block2,30,18
3,2463,bmw,possNP,possNP,projective,B,0.96,block2,30,19
3,2584,muffins,MC3,MC,projective,NonProj,0.01,block2,30,20
3,2556,nails,stupid,stupid,projective,C,0.98,block2,30,21
3,2376,play,MC5,MC,projective,NonProj,0.02,block2,30,22
3,2592,alcatraz,NRRC,NRRC,projective,B,0.98,block2,30,23
3,4076,pizza,only,only,projective,C,0.92,block2,30,24
3,3782,ballet,stop,stop,projective,C,0.96,block2,30,25
3,3034,olives,MC2,MC,projective,NonProj,0.02,block2,30,26
3,2400,boyfriend,MC1,MC,projective,NonProj,0.01,block2,30,27
3,2794,cheat,know,know,projective,C,0.99,block2,30,28
3,3003,hat,annoyed,annoyed,projective,C,0.98,block2,30,29
3,2445,soccer,discover,discover,projective,C,0.99,block2,30,30
5,7013,bmw,MC1,MC,projective,NonProj,0.02,block1,44,1
5,6551,play,stop,stop,projective,C,1,block1,44,2
5,4113,hat,possNP,possNP,projective,B,1,block1,44,3
5,7252,cupcakes,MC5,MC,projective,NonProj,0,block1,44,4
5,5220,kids,stupid,stupid,projective,C,1,block1,44,5
5,4909,muffins,MC6,MC,projective,NonProj,0,block1,44,6
5,4107,alcatraz,MC4,MC,projective,NonProj,0,block1,44,7
5,9977,nails,discover,discover,projective,C,0.39,block1,44,8
5,4709,veggie,NRRC,NRRC,projective,B,1,block1,44,9
5,5205,boyfriend,MC3,MC,projective,NonProj,0,block1,44,10
5,6427,stuntman,NomApp,NomApp,projective,B,1,block1,44,11
5,13292,olives,annoyed,annoyed,projective,C,1,block1,44,12
5,4344,cheat,MC2,MC,projective,NonProj,0,block1,44,13
5,9804,aunt,know,know,projective,C,1,block1,44,14
5,5618,pizza,only,only,projective,C,1,block1,44,15
5,6719,veggie,NRRC,NRRC,ai,B,1,block2,44,16
5,6478,hat,possNP,possNP,ai,B,1,block2,44,17
5,3852,stuntman,NomApp,NomApp,ai,B,1,block2,44,18
5,3739,boyfriend,MC3,MC,ai,NonProj,0,block2,44,19
5,2949,cupcakes,MC5,MC,ai,NonProj,0,block2,44,20
5,2580,olives,annoyed,annoyed,ai,C,1,block2,44,21
5,2558,cheat,MC2,MC,ai,NonProj,0,block2,44,22
5,3062,pizza,only,only,ai,C,1,block2,44,23
5,4071,play,stop,stop,ai,C,1,block2,44,24
5,3168,aunt,know,know,ai,C,1,block2,44,25
5,3457,bmw,MC1,MC,ai,NonProj,0,block2,44,26
5,11907,nails,discover,discover,ai,C,0.73,block2,44,27
5,3625,kids,stupid,stupid,ai,C,1,block2,44,28
5,4164,alcatraz,MC4,MC,ai,NonProj,0,block2,44,29
5,2823,muffins,MC6,MC,ai,NonProj,0,block2,44,30
6,7838,hat,know,know,projective,C,1,block1,29,1
6,6105,kids,MC1,MC,projective,NonProj,0.03,block1,29,2
6,4735,bmw,MC5,MC,projective,NonProj,0.03,block1,29,3
6,6248,olives,annoyed,annoyed,projective,C,0.96,block1,29,4
6,6184,play,stop,stop,projective,C,0.99,block1,29,5
6,6359,alcatraz,discover,discover,projective,C,1,block1,29,6
6,3080,stuntman,MC3,MC,projective,NonProj,0.01,block1,29,7
6,5224,cupcakes,MC2,MC,projective,NonProj,0.02,block1,29,8
6,5360,muffins,NRRC,NRRC,projective,B,0.98,block1,29,9
6,6167,pizza,only,only,projective,C,0.99,block1,29,10
6,4936,veggie,NomApp,NomApp,projective,B,0.99,block1,29,11
6,8848,nails,MC4,MC,projective,NonProj,0.01,block1,29,12
6,11121,aunt,possNP,possNP,projective,B,0.98,block1,29,13
6,2727,boyfriend,MC6,MC,projective,NonProj,0,block1,29,14
6,7271,cheat,stupid,stupid,projective,C,0.98,block1,29,15
6,5367,play,stop,stop,ai,C,1,block2,29,16
6,3287,olives,annoyed,annoyed,ai,C,0.98,block2,29,17
6,2711,pizza,only,only,ai,C,0.99,block2,29,18
6,2944,muffins,NRRC,NRRC,ai,B,0.99,block2,29,19
6,2792,cupcakes,MC2,MC,ai,NonProj,0.03,block2,29,20
6,3961,alcatraz,discover,discover,ai,C,0.97,block2,29,21
6,2895,aunt,possNP,possNP,ai,B,1,block2,29,22
6,2599,hat,know,know,ai,C,0.97,block2,29,23
6,2488,stuntman,MC3,MC,ai,NonProj,0.02,block2,29,24
6,1968,bmw,MC5,MC,ai,NonProj,0.02,block2,29,25
6,2576,cheat,stupid,stupid,ai,C,1,block2,29,26
6,7128,veggie,NomApp,NomApp,ai,B,0.97,block2,29,27
6,2456,boyfriend,MC6,MC,ai,NonProj,0.01,block2,29,28
6,4007,kids,MC1,MC,ai,NonProj,0.04,block2,29,29
6,2800,nails,MC4,MC,ai,NonProj,0.01,block2,29,30
7,6389,cheat,MC2,MC,projective,NonProj,0.01,block1,26,1
7,4534,soccer,know,know,projective,C,0.99,block1,26,2
7,3186,muffins,MC5,MC,projective,NonProj,0.07,block1,26,3
7,10932,boyfriend,NRRC,NRRC,projective,B,1,block1,26,4
7,9089,kids,MC6,MC,projective,NonProj,0,block1,26,5
7,4182,play,MC1,MC,projective,NonProj,0,block1,26,6
7,6039,aunt,possNP,possNP,projective,B,1,block1,26,7
7,6825,stuntman,NomApp,NomApp,projective,B,1,block1,26,8
7,6734,olives,annoyed,annoyed,projective,C,1,block1,26,9
7,5529,pizza,only,only,projective,C,0,block1,26,10
7,3704,veggie,MC4,MC,projective,NonProj,0,block1,26,11
7,5167,hat,MC3,MC,projective,NonProj,0,block1,26,12
7,6913,nails,stupid,stupid,projective,C,1,block1,26,13
7,5734,ballet,stop,stop,projective,C,1,block1,26,14
7,6520,alcatraz,discover,discover,projective,C,1,block1,26,15
7,6534,alcatraz,discover,discover,ai,C,1,block2,26,16
7,8518,play,MC1,MC,ai,NonProj,0,block2,26,17
7,4760,stuntman,NomApp,NomApp,ai,B,1,block2,26,18
7,6111,hat,MC3,MC,ai,NonProj,0,block2,26,19
7,6607,ballet,stop,stop,ai,C,1,block2,26,20
7,5928,veggie,MC4,MC,ai,NonProj,0,block2,26,21
7,8584,pizza,only,only,ai,C,1,block2,26,22
7,5815,nails,stupid,stupid,ai,C,1,block2,26,23
7,6839,kids,MC6,MC,ai,NonProj,0,block2,26,24
7,7239,boyfriend,NRRC,NRRC,ai,B,1,block2,26,25
7,9569,soccer,know,know,ai,C,1,block2,26,26
7,4590,olives,annoyed,annoyed,ai,C,1,block2,26,27
7,3305,cheat,MC2,MC,ai,NonProj,0.01,block2,26,28
7,6872,muffins,MC5,MC,ai,NonProj,0,block2,26,29
7,4823,aunt,possNP,possNP,ai,B,1,block2,26,30
8,16950,alcatraz,discover,discover,ai,C,1,block1,20,1
8,9847,cupcakes,NRRC,NRRC,ai,B,1,block1,20,2
8,4277,stuntman,MC3,MC,ai,NonProj,0,block1,20,3
8,4521,kids,MC1,MC,ai,NonProj,0,block1,20,4
8,6409,hat,annoyed,annoyed,ai,C,1,block1,20,5
8,13708,bmw,know,know,ai,C,1,block1,20,6
8,5074,veggie,MC4,MC,ai,NonProj,0,block1,20,7
8,3297,boyfriend,MC2,MC,ai,NonProj,0.02,block1,20,8
8,4375,aunt,possNP,possNP,ai,B,1,block1,20,9
8,4785,cheat,stupid,stupid,ai,C,1,block1,20,10
8,4045,ballet,NomApp,NomApp,ai,B,1,block1,20,11
8,4081,play,stop,stop,ai,C,0,block1,20,12
8,5999,nails,MC5,MC,ai,NonProj,0,block1,20,13
8,4731,pizza,only,only,ai,C,0,block1,20,14
8,4288,olives,MC6,MC,ai,NonProj,0,block1,20,15
8,9414,veggie,MC4,MC,projective,NonProj,0,block2,20,16
8,3585,stuntman,MC3,MC,projective,NonProj,0,block2,20,17
8,2349,boyfriend,MC2,MC,projective,NonProj,0,block2,20,18
8,3669,kids,MC1,MC,projective,NonProj,1,block2,20,19
8,3659,bmw,know,know,projective,C,0.99,block2,20,20
8,4112,nails,MC5,MC,projective,NonProj,0,block2,20,21
8,4187,cupcakes,NRRC,NRRC,projective,B,1,block2,20,22
8,3180,ballet,NomApp,NomApp,projective,B,1,block2,20,23
8,5327,hat,annoyed,annoyed,projective,C,1,block2,20,24
8,8850,cheat,stupid,stupid,projective,C,0,block2,20,25
8,3166,alcatraz,discover,discover,projective,C,1,block2,20,26
8,3329,aunt,possNP,possNP,projective,B,1,block2,20,27
8,4723,olives,MC6,MC,projective,NonProj,0,block2,20,28
8,2041,pizza,only,only,projective,C,0,block2,20,29
8,4022,play,stop,stop,projective,C,1,block2,20,30
9,7901,hat,MC1,MC,ai,NonProj,0.02,block1,38,1
9,7587,kids,MC3,MC,ai,NonProj,0.03,block1,38,2
9,10198,play,stop,stop,ai,C,0.08,block1,38,3
9,9298,cupcakes,NRRC,NRRC,ai,B,0.99,block1,38,4
9,12700,muffins,only,only,ai,C,0.64,block1,38,5
9,8518,ballet,NomApp,NomApp,ai,B,0.99,block1,38,6
9,7949,nails,MC2,MC,ai,NonProj,0.01,block1,38,7
9,5067,cheat,MC6,MC,ai,NonProj,0,block1,38,8
9,7433,olives,annoyed,annoyed,ai,C,0.97,block1,38,9
9,4867,boyfriend,MC5,MC,ai,NonProj,0.03,block1,38,10
9,6867,alcatraz,know,know,ai,C,0.99,block1,38,11
9,3748,veggie,MC4,MC,ai,NonProj,0.01,block1,38,12
9,7920,stuntman,stupid,stupid,ai,C,0.99,block1,38,13
9,5936,pizza,discover,discover,ai,C,0.99,block1,38,14
9,7777,aunt,possNP,possNP,ai,B,0.97,block1,38,15
9,8167,play,stop,stop,projective,C,0.9,block2,38,16
9,4603,kids,MC3,MC,projective,NonProj,0.15,block2,38,17
9,5333,alcatraz,know,know,projective,C,0.98,block2,38,18
9,4114,hat,MC1,MC,projective,NonProj,0.03,block2,38,19
9,4837,stuntman,stupid,stupid,projective,C,0.99,block2,38,20
9,4067,pizza,discover,discover,projective,C,0.98,block2,38,21
9,4281,nails,MC2,MC,projective,NonProj,0.01,block2,38,22
9,4851,aunt,possNP,possNP,projective,B,0.97,block2,38,23
9,3449,boyfriend,MC5,MC,projective,NonProj,0.01,block2,38,24
9,4616,olives,annoyed,annoyed,projective,C,0.99,block2,38,25
9,6435,ballet,NomApp,NomApp,projective,B,0.98,block2,38,26
9,7114,muffins,only,only,projective,C,0.98,block2,38,27
9,3751,cheat,MC6,MC,projective,NonProj,0.03,block2,38,28
9,3065,veggie,MC4,MC,projective,NonProj,0.03,block2,38,29
9,4017,cupcakes,NRRC,NRRC,projective,B,0.99,block2,38,30
10,13718,cheat,stupid,stupid,ai,C,1,block1,22,1
10,13328,kids,only,only,ai,C,1,block1,22,2
10,4607,veggie,MC1,MC,ai,NonProj,0,block1,22,3
10,6312,ballet,stop,stop,ai,C,1,block1,22,4
10,4280,aunt,MC4,MC,ai,NonProj,0,block1,22,5
10,4223,muffins,MC6,MC,ai,NonProj,0,block1,22,6
10,5728,play,MC2,MC,ai,NonProj,0,block1,22,7
10,5120,hat,MC3,MC,ai,NonProj,0,block1,22,8
10,4407,stuntman,NomApp,NomApp,ai,B,1,block1,22,9
10,4130,boyfriend,possNP,possNP,ai,B,1,block1,22,10
10,4311,soccer,MC5,MC,ai,NonProj,0,block1,22,11
10,6313,nails,discover,discover,ai,C,1,block1,22,12
10,9768,olives,annoyed,annoyed,ai,C,1,block1,22,13
10,6399,alcatraz,know,know,ai,C,1,block1,22,14
10,4784,cupcakes,NRRC,NRRC,ai,B,1,block1,22,15
10,5936,aunt,MC4,MC,projective,NonProj,0,block2,22,16
10,3568,boyfriend,possNP,possNP,projective,B,1,block2,22,17
10,5047,hat,MC3,MC,projective,NonProj,0,block2,22,18
10,5832,kids,only,only,projective,C,1,block2,22,19
10,7521,muffins,MC6,MC,projective,NonProj,0,block2,22,20
10,4039,stuntman,NomApp,NomApp,projective,B,1,block2,22,21
10,8976,olives,annoyed,annoyed,projective,C,1,block2,22,22
10,14150,ballet,stop,stop,projective,C,1,block2,22,23
10,9339,nails,discover,discover,projective,C,1,block2,22,24
10,4879,cheat,stupid,stupid,projective,C,1,block2,22,25
10,4344,soccer,MC5,MC,projective,NonProj,0,block2,22,26
10,10145,cupcakes,NRRC,NRRC,projective,B,1,block2,22,27
10,3575,veggie,MC1,MC,projective,NonProj,0,block2,22,28
10,4985,alcatraz,know,know,projective,C,1,block2,22,29
10,6687,play,MC2,MC,projective,NonProj,0,block2,22,30
12,10718,hat,possNP,possNP,projective,B,0.98,block1,35,1
12,6564,stuntman,stupid,stupid,projective,C,0.96,block1,35,2
12,9569,olives,MC6,MC,projective,NonProj,0.01,block1,35,3
12,5801,boyfriend,MC1,MC,projective,NonProj,0.02,block1,35,4
12,7953,alcatraz,discover,discover,projective,C,0.98,block1,35,5
12,13601,kids,only,only,projective,C,0.99,block1,35,6
12,6862,soccer,MC5,MC,projective,NonProj,0.01,block1,35,7
12,7552,ballet,NomApp,NomApp,projective,B,0.98,block1,35,8
12,5536,play,MC2,MC,projective,NonProj,0.03,block1,35,9
12,9157,cupcakes,know,know,projective,C,0.98,block1,35,10
12,5935,pizza,annoyed,annoyed,projective,C,0.99,block1,35,11
12,8353,nails,stop,stop,projective,C,0.98,block1,35,12
12,9197,veggie,NRRC,NRRC,projective,B,0.98,block1,35,13
12,6664,bmw,MC4,MC,projective,NonProj,0.02,block1,35,14
12,6163,aunt,MC3,MC,projective,NonProj,0.02,block1,35,15
12,8931,cupcakes,know,know,ai,C,0.99,block2,35,16
12,8334,bmw,MC4,MC,ai,NonProj,0.03,block2,35,17
12,6722,stuntman,stupid,stupid,ai,C,1,block2,35,18
12,7388,play,MC2,MC,ai,NonProj,0.03,block2,35,19
12,9487,kids,only,only,ai,C,0.97,block2,35,20
12,5950,pizza,annoyed,annoyed,ai,C,0.99,block2,35,21
12,6392,olives,MC6,MC,ai,NonProj,0.01,block2,35,22
12,5410,veggie,NRRC,NRRC,ai,B,0.99,block2,35,23
12,8786,aunt,MC3,MC,ai,NonProj,0.03,block2,35,24
12,5554,soccer,MC5,MC,ai,NonProj,0.02,block2,35,25
12,5632,hat,possNP,possNP,ai,B,0.98,block2,35,26
12,6374,alcatraz,discover,discover,ai,C,0.98,block2,35,27
12,5047,ballet,NomApp,NomApp,ai,B,0.97,block2,35,28
12,4399,boyfriend,MC1,MC,ai,NonProj,0.03,block2,35,29
12,5988,nails,stop,stop,ai,C,0.02,block2,35,30
13,8572,alcatraz,MC2,MC,projective,NonProj,0.03,block1,34,1
13,8742,nails,discover,discover,projective,C,0.23,block1,34,2
13,5800,veggie,NomApp,NomApp,projective,B,0.98,block1,34,3
13,5349,stuntman,MC4,MC,projective,NonProj,0.01,block1,34,4
13,9338,play,know,know,projective,C,0.98,block1,34,5
13,13632,pizza,only,only,projective,C,0.8,block1,34,6
13,5350,aunt,possNP,possNP,projective,B,0.98,block1,34,7
13,5835,boyfriend,NRRC,NRRC,projective,B,0.99,block1,34,8
13,7968,cupcakes,MC6,MC,projective,NonProj,0.01,block1,34,9
13,5516,cheat,MC5,MC,projective,NonProj,0,block1,34,10
13,7254,soccer,annoyed,annoyed,projective,C,1,block1,34,11
13,5344,muffins,MC3,MC,projective,NonProj,0,block1,34,12
13,7082,hat,MC1,MC,projective,NonProj,0,block1,34,13
13,6050,kids,stupid,stupid,projective,C,1,block1,34,14
13,6281,ballet,stop,stop,projective,C,1,block1,34,15
13,8038,veggie,NomApp,NomApp,ai,B,1,block2,34,16
13,6963,cupcakes,MC6,MC,ai,NonProj,1,block2,34,17
13,9896,play,know,know,ai,C,1,block2,34,18
13,5522,stuntman,MC4,MC,ai,NonProj,0,block2,34,19
13,4608,hat,MC1,MC,ai,NonProj,0,block2,34,20
13,6761,aunt,possNP,possNP,ai,B,1,block2,34,21
13,5499,ballet,stop,stop,ai,C,1,block2,34,22
13,10522,nails,discover,discover,ai,C,0.31,block2,34,23
13,5210,kids,stupid,stupid,ai,C,1,block2,34,24
13,4810,soccer,annoyed,annoyed,ai,C,1,block2,34,25
13,5062,alcatraz,MC2,MC,ai,NonProj,0,block2,34,26
13,5874,boyfriend,NRRC,NRRC,ai,B,1,block2,34,27
13,5618,pizza,only,only,ai,C,0.28,block2,34,28
13,4246,muffins,MC3,MC,ai,NonProj,0,block2,34,29
13,4756,cheat,MC5,MC,ai,NonProj,0,block2,34,30
14,13772,aunt,possNP,possNP,ai,B,0.91,block1,34,1
14,5396,pizza,only,only,ai,C,0.12,block1,34,2
14,5644,hat,MC6,MC,ai,NonProj,0.04,block1,34,3
14,6703,ballet,NomApp,NomApp,ai,B,0.94,block1,34,4
14,4961,veggie,MC4,MC,ai,NonProj,0.03,block1,34,5
14,11193,alcatraz,know,know,ai,C,0.9,block1,34,6
14,5887,muffins,MC2,MC,ai,NonProj,0.07,block1,34,7
14,3397,boyfriend,NRRC,NRRC,ai,B,0.95,block1,34,8
14,5184,soccer,discover,discover,ai,C,0.92,block1,34,9
14,3862,play,stop,stop,ai,C,0.11,block1,34,10
14,3050,kids,MC1,MC,ai,NonProj,0.07,block1,34,11
14,5156,nails,stupid,stupid,ai,C,0.92,block1,34,12
14,3182,cupcakes,MC3,MC,ai,NonProj,0.08,block1,34,13
14,2726,stuntman,MC5,MC,ai,NonProj,0.09,block1,34,14
14,3537,bmw,annoyed,annoyed,ai,C,0.92,block1,34,15
14,7053,play,stop,stop,projective,C,0.07,block2,34,16
14,2092,stuntman,MC5,MC,projective,NonProj,0.94,block2,34,17
14,6744,pizza,only,only,projective,C,0.9,block2,34,18
14,3658,boyfriend,NRRC,NRRC,projective,B,0.93,block2,34,19
14,4455,alcatraz,know,know,projective,C,0.87,block2,34,20
14,3165,cupcakes,MC3,MC,projective,NonProj,0.12,block2,34,21
14,2295,muffins,MC2,MC,projective,NonProj,0.18,block2,34,22
14,3313,hat,MC6,MC,projective,NonProj,0.16,block2,34,23
14,6232,aunt,possNP,possNP,projective,B,0.84,block2,34,24
14,3513,soccer,discover,discover,projective,C,0.76,block2,34,25
14,5904,ballet,NomApp,NomApp,projective,B,0.94,block2,34,26
14,4942,bmw,annoyed,annoyed,projective,C,0.8,block2,34,27
14,3208,veggie,MC4,MC,projective,NonProj,0.21,block2,34,28
14,3834,kids,MC1,MC,projective,NonProj,0.08,block2,34,29
14,3719,nails,stupid,stupid,projective,C,0.84,block2,34,30
15,6876,olives,MC1,MC,ai,NonProj,0.02,block1,39,1
15,7567,cupcakes,NRRC,NRRC,ai,B,0.97,block1,39,2
15,8488,bmw,possNP,possNP,ai,B,0.97,block1,39,3
15,9461,muffins,only,only,ai,C,1,block1,39,4
15,7083,stuntman,MC3,MC,ai,NonProj,0,block1,39,5
15,7951,nails,MC6,MC,ai,NonProj,0.01,block1,39,6
15,5116,ballet,NomApp,NomApp,ai,B,0.97,block1,39,7
15,11249,play,stop,stop,ai,C,1,block1,39,8
15,4860,boyfriend,MC5,MC,ai,NonProj,0.01,block1,39,9
15,6160,hat,MC4,MC,ai,NonProj,0.01,block1,39,10
15,5716,pizza,discover,discover,ai,C,0.99,block1,39,11
15,7213,cheat,stupid,stupid,ai,C,1,block1,39,12
15,7603,veggie,MC2,MC,ai,NonProj,0.01,block1,39,13
15,6136,soccer,annoyed,annoyed,ai,C,0.99,block1,39,14
15,5959,alcatraz,know,know,ai,C,0.98,block1,39,15
15,5749,hat,MC4,MC,projective,NonProj,0.01,block2,39,16
15,5741,bmw,possNP,possNP,projective,B,0.98,block2,39,17
15,5239,cheat,stupid,stupid,projective,C,0.99,block2,39,18
15,6394,soccer,annoyed,annoyed,projective,C,0.98,block2,39,19
15,5335,play,stop,stop,projective,C,0.99,block2,39,20
15,5197,cupcakes,NRRC,NRRC,projective,B,0.99,block2,39,21
15,4828,ballet,NomApp,NomApp,projective,B,0.99,block2,39,22
15,4255,alcatraz,know,know,projective,C,0.98,block2,39,23
15,3580,veggie,MC2,MC,projective,NonProj,0.02,block2,39,24
15,3315,stuntman,MC3,MC,projective,NonProj,0.02,block2,39,25
15,3921,boyfriend,MC5,MC,projective,NonProj,0.01,block2,39,26
15,4503,muffins,only,only,projective,C,0.99,block2,39,27
15,4219,olives,MC1,MC,projective,NonProj,0.01,block2,39,28
15,4174,pizza,discover,discover,projective,C,0.99,block2,39,29
15,3773,nails,MC6,MC,projective,NonProj,0.02,block2,39,30
16,5209,cheat,MC3,MC,projective,NonProj,0.05,block1,30,1
16,4497,hat,possNP,possNP,projective,B,0.95,block1,30,2
16,20282,ballet,stop,stop,projective,C,0.73,block1,30,3
16,8982,muffins,MC6,MC,projective,NonProj,0.13,block1,30,4
16,30339,play,discover,discover,projective,C,0.81,block1,30,5
16,8821,soccer,know,know,projective,C,0.66,block1,30,6
16,4059,boyfriend,MC4,MC,projective,NonProj,0.11,block1,30,7
16,6221,kids,only,only,projective,C,0.17,block1,30,8
16,7502,cupcakes,MC5,MC,projective,NonProj,0.2,block1,30,9
16,4322,bmw,NomApp,NomApp,projective,B,0.77,block1,30,10
16,4533,olives,MC1,MC,projective,NonProj,0.23,block1,30,11
16,4818,pizza,annoyed,annoyed,projective,C,0.73,block1,30,12
16,9010,alcatraz,MC2,MC,projective,NonProj,0.12,block1,30,13
16,7820,aunt,NRRC,NRRC,projective,B,0.93,block1,30,14
16,5426,nails,stupid,stupid,projective,C,0.71,block1,30,15
16,4954,hat,possNP,possNP,ai,B,0.99,block2,30,16
16,4129,alcatraz,MC2,MC,ai,NonProj,0.05,block2,30,17
16,3637,aunt,NRRC,NRRC,ai,B,0.97,block2,30,18
16,3744,ballet,stop,stop,ai,C,0.88,block2,30,19
16,3960,kids,only,only,ai,C,0.29,block2,30,20
16,3243,cupcakes,MC5,MC,ai,NonProj,0.13,block2,30,21
16,3057,cheat,MC3,MC,ai,NonProj,0.04,block2,30,22
16,5482,nails,stupid,stupid,ai,C,0.54,block2,30,23
16,9701,pizza,annoyed,annoyed,ai,C,0.79,block2,30,24
16,5482,play,discover,discover,ai,C,0.76,block2,30,25
16,4186,bmw,NomApp,NomApp,ai,B,0.92,block2,30,26
16,2915,boyfriend,MC4,MC,ai,NonProj,0.07,block2,30,27
16,4444,olives,MC1,MC,ai,NonProj,0.0600000000000001,block2,30,28
16,3058,muffins,MC6,MC,ai,NonProj,0.08,block2,30,29
16,2633,soccer,know,know,ai,C,0.02,block2,30,30
17,12580,kids,MC6,MC,projective,NonProj,0,block1,24,1
17,7090,stuntman,NomApp,NomApp,projective,B,1,block1,24,2
17,8389,cupcakes,MC5,MC,projective,NonProj,0.11,block1,24,3
17,18808,nails,stupid,stupid,projective,C,0.95,block1,24,4
17,7644,bmw,annoyed,annoyed,projective,C,0.97,block1,24,5
17,8864,olives,MC4,MC,projective,NonProj,0.27,block1,24,6
17,8867,hat,possNP,possNP,projective,B,1,block1,24,7
17,6701,ballet,stop,stop,projective,C,0.79,block1,24,8
17,8230,veggie,MC1,MC,projective,NonProj,0.26,block1,24,9
17,6381,aunt,NRRC,NRRC,projective,B,0.98,block1,24,10
17,7713,soccer,discover,discover,projective,C,0.8,block1,24,11
17,11667,cheat,MC2,MC,projective,NonProj,0.16,block1,24,12
17,12725,play,know,know,projective,C,1,block1,24,13
17,10783,muffins,only,only,projective,C,1,block1,24,14
17,5130,alcatraz,MC3,MC,projective,NonProj,0.09,block1,24,15
17,24627,hat,possNP,possNP,ai,B,1,block2,24,16
17,4466,veggie,MC1,MC,ai,NonProj,0,block2,24,17
17,8091,ballet,stop,stop,ai,C,1,block2,24,18
17,5715,soccer,discover,discover,ai,C,1,block2,24,19
17,15042,olives,MC4,MC,ai,NonProj,0,block2,24,20
17,6240,alcatraz,MC3,MC,ai,NonProj,0,block2,24,21
17,9036,kids,MC6,MC,ai,NonProj,0,block2,24,22
17,9244,nails,stupid,stupid,ai,C,0.84,block2,24,23
17,5301,muffins,only,only,ai,C,0.88,block2,24,24
17,5862,stuntman,NomApp,NomApp,ai,B,1,block2,24,25
17,5979,cupcakes,MC5,MC,ai,NonProj,0,block2,24,26
17,3822,cheat,MC2,MC,ai,NonProj,0,block2,24,27
17,8149,play,know,know,ai,C,1,block2,24,28
17,8594,aunt,NRRC,NRRC,ai,B,0.84,block2,24,29
17,6132,bmw,annoyed,annoyed,ai,C,0.94,block2,24,30
18,21202,kids,only,only,ai,C,0.91,block1,33,1
18,10503,olives,annoyed,annoyed,ai,C,0.97,block1,33,2
18,7494,muffins,MC3,MC,ai,NonProj,0.05,block1,33,3
18,6503,cheat,know,know,ai,C,0.96,block1,33,4
18,9756,alcatraz,NRRC,NRRC,ai,B,0.97,block1,33,5
18,10734,soccer,discover,discover,ai,C,0.96,block1,33,6
18,5309,ballet,MC1,MC,ai,NonProj,0.05,block1,33,7
18,9560,boyfriend,MC4,MC,ai,NonProj,0.02,block1,33,8
18,7652,play,stop,stop,ai,C,0.97,block1,33,9
18,8475,nails,MC2,MC,ai,NonProj,0.05,block1,33,10
18,8734,stuntman,stupid,stupid,ai,C,0.96,block1,33,11
18,8315,veggie,NomApp,NomApp,ai,B,0.97,block1,33,12
18,7024,bmw,MC6,MC,ai,NonProj,0.03,block1,33,13
18,7263,pizza,MC5,MC,ai,NonProj,0.03,block1,33,14
18,5860,hat,possNP,possNP,ai,B,0.97,block1,33,15
18,10585,cheat,know,know,projective,C,0.87,block2,33,16
18,5191,pizza,MC5,MC,projective,NonProj,0.01,block2,33,17
18,10907,ballet,MC1,MC,projective,NonProj,0.02,block2,33,18
18,5524,play,stop,stop,projective,C,0.96,block2,33,19
18,5599,veggie,NomApp,NomApp,projective,B,0.98,block2,33,20
18,5484,nails,MC2,MC,projective,NonProj,0.06,block2,33,21
18,4283,boyfriend,MC4,MC,projective,NonProj,0.01,block2,33,22
18,5778,hat,possNP,possNP,projective,B,0.81,block2,33,23
18,4934,alcatraz,NRRC,NRRC,projective,B,0.88,block2,33,24
18,4268,kids,only,only,projective,C,0.88,block2,33,25
18,3877,bmw,MC6,MC,projective,NonProj,0.04,block2,33,26
18,7201,olives,annoyed,annoyed,projective,C,0.86,block2,33,27
18,13363,soccer,discover,discover,projective,C,0.84,block2,33,28
18,6781,stuntman,stupid,stupid,projective,C,0.05,block2,33,29
18,4393,muffins,MC3,MC,projective,NonProj,0.04,block2,33,30
19,7958,hat,possNP,possNP,projective,B,0.98,block1,33,1
19,5131,play,MC4,MC,projective,NonProj,0.02,block1,33,2
19,6912,veggie,NomApp,NomApp,projective,B,0.97,block1,33,3
19,10709,pizza,only,only,projective,C,0.67,block1,33,4
19,5366,olives,MC3,MC,projective,NonProj,0.03,block1,33,5
19,5538,cheat,stupid,stupid,projective,C,0.97,block1,33,6
19,6671,soccer,know,know,projective,C,0.98,block1,33,7
19,5194,nails,stop,stop,projective,C,0.98,block1,33,8
19,4693,bmw,annoyed,annoyed,projective,C,0.98,block1,33,9
19,5788,alcatraz,discover,discover,projective,C,0.98,block1,33,10
19,6354,aunt,NRRC,NRRC,projective,B,0.99,block1,33,11
19,5548,ballet,MC2,MC,projective,NonProj,0.02,block1,33,12
19,3780,stuntman,MC1,MC,projective,NonProj,0.01,block1,33,13
19,4492,cupcakes,MC5,MC,projective,NonProj,0.03,block1,33,14
19,5733,boyfriend,MC6,MC,projective,NonProj,0.01,block1,33,15
19,7017,olives,MC3,MC,ai,NonProj,0.03,block2,33,16
19,5630,nails,stop,stop,ai,C,0.01,block2,33,17
19,5223,aunt,NRRC,NRRC,ai,B,0.98,block2,33,18
19,5686,cheat,stupid,stupid,ai,C,0.98,block2,33,19
19,4262,boyfriend,MC6,MC,ai,NonProj,0.02,block2,33,20
19,12091,pizza,only,only,ai,C,0.81,block2,33,21
19,4373,stuntman,MC1,MC,ai,NonProj,0.01,block2,33,22
19,7747,soccer,know,know,ai,C,1,block2,33,23
19,6005,ballet,MC2,MC,ai,NonProj,0.02,block2,33,24
19,3774,cupcakes,MC5,MC,ai,NonProj,0.03,block2,33,25
19,4585,bmw,annoyed,annoyed,ai,C,0.98,block2,33,26
19,4692,alcatraz,discover,discover,ai,C,0.98,block2,33,27
19,5071,hat,possNP,possNP,ai,B,0.98,block2,33,28
19,4431,play,MC4,MC,ai,NonProj,0.02,block2,33,29
19,4804,veggie,NomApp,NomApp,ai,B,0.98,block2,33,30
21,14872,hat,know,know,projective,C,0.96,block1,51,1
21,12212,cheat,MC1,MC,projective,NonProj,0.01,block1,51,2
21,7443,stuntman,MC6,MC,projective,NonProj,0.03,block1,51,3
21,8509,play,stop,stop,projective,C,0.96,block1,51,4
21,6741,muffins,MC4,MC,projective,NonProj,0.02,block1,51,5
21,9140,cupcakes,MC5,MC,projective,NonProj,0.05,block1,51,6
21,4627,boyfriend,MC3,MC,projective,NonProj,0.02,block1,51,7
21,13876,kids,only,only,projective,C,0.89,block1,51,8
21,9692,nails,stupid,stupid,projective,C,0.98,block1,51,9
21,9836,ballet,NomApp,NomApp,projective,B,0.94,block1,51,10
21,7862,alcatraz,NRRC,NRRC,projective,B,0.98,block1,51,11
21,5329,veggie,MC2,MC,projective,NonProj,0.03,block1,51,12
21,9346,pizza,annoyed,annoyed,projective,C,0.97,block1,51,13
21,7452,aunt,possNP,possNP,projective,B,0.96,block1,51,14
21,10219,soccer,discover,discover,projective,C,0.99,block1,51,15
21,17297,play,stop,stop,ai,C,0.93,block2,51,16
21,7806,nails,stupid,stupid,ai,C,0.94,block2,51,17
21,6332,pizza,annoyed,annoyed,ai,C,0.96,block2,51,18
21,6737,cheat,MC1,MC,ai,NonProj,0.02,block2,51,19
21,8066,muffins,MC4,MC,ai,NonProj,0.03,block2,51,20
21,4722,stuntman,MC6,MC,ai,NonProj,0.03,block2,51,21
21,7669,aunt,possNP,possNP,ai,B,0.98,block2,51,22
21,5556,veggie,MC2,MC,ai,NonProj,0.02,block2,51,23
21,4332,ballet,NomApp,NomApp,ai,B,0.96,block2,51,24
21,10967,hat,know,know,ai,C,1,block2,51,25
21,4383,alcatraz,NRRC,NRRC,ai,B,0.96,block2,51,26
21,5856,cupcakes,MC5,MC,ai,NonProj,0.02,block2,51,27
21,6030,kids,only,only,ai,C,0.96,block2,51,28
21,4625,boyfriend,MC3,MC,ai,NonProj,0.03,block2,51,29
21,6272,soccer,discover,discover,ai,C,0.94,block2,51,30
22,14751,nails,stop,stop,ai,C,0.98,block1,42,1
22,8552,aunt,possNP,possNP,ai,B,0.96,block1,42,2
22,6447,stuntman,stupid,stupid,ai,C,0.96,block1,42,3
22,9880,muffins,MC3,MC,ai,NonProj,0.03,block1,42,4
22,11280,pizza,only,only,ai,C,0.99,block1,42,5
22,8984,cupcakes,MC1,MC,ai,NonProj,0.03,block1,42,6
22,17280,play,know,know,ai,C,0.97,block1,42,7
22,5444,boyfriend,MC6,MC,ai,NonProj,0.03,block1,42,8
22,5716,cheat,MC5,MC,ai,NonProj,0.01,block1,42,9
22,9289,ballet,MC2,MC,ai,NonProj,0.03,block1,42,10
22,5471,soccer,MC4,MC,ai,NonProj,0.02,block1,42,11
22,7417,alcatraz,discover,discover,ai,C,0.99,block1,42,12
22,9824,olives,annoyed,annoyed,ai,C,1,block1,42,13
22,7223,bmw,NomApp,NomApp,ai,B,0.99,block1,42,14
22,6239,veggie,NRRC,NRRC,ai,B,0.97,block1,42,15
22,9504,alcatraz,discover,discover,projective,C,0.97,block2,42,16
22,19079,nails,stop,stop,projective,C,0.72,block2,42,17
22,11839,olives,annoyed,annoyed,projective,C,0.97,block2,42,18
22,8209,play,know,know,projective,C,0.96,block2,42,19
22,5944,cheat,MC5,MC,projective,NonProj,0,block2,42,20
22,5024,boyfriend,MC6,MC,projective,NonProj,0.02,block2,42,21
22,8905,ballet,MC2,MC,projective,NonProj,0,block2,42,22
22,7663,veggie,NRRC,NRRC,projective,B,0.98,block2,42,23
22,8496,pizza,only,only,projective,C,1,block2,42,24
22,13736,muffins,MC3,MC,projective,NonProj,0.02,block2,42,25
22,6256,soccer,MC4,MC,projective,NonProj,0.03,block2,42,26
22,5752,bmw,NomApp,NomApp,projective,B,0.96,block2,42,27
22,6024,stuntman,stupid,stupid,projective,C,1,block2,42,28
22,4624,aunt,possNP,possNP,projective,B,0.99,block2,42,29
22,6836,cupcakes,MC1,MC,projective,NonProj,0.01,block2,42,30
23,4050,stuntman,MC3,MC,ai,NonProj,0,block1,25,1
23,10164,pizza,only,only,ai,C,0,block1,25,2
23,4810,cupcakes,MC4,MC,ai,NonProj,0,block1,25,3
23,4254,kids,MC1,MC,ai,NonProj,0,block1,25,4
23,5879,veggie,NRRC,NRRC,ai,B,1,block1,25,5
23,6442,bmw,NomApp,NomApp,ai,B,1,block1,25,6
23,4466,boyfriend,MC6,MC,ai,NonProj,0,block1,25,7
23,4472,aunt,possNP,possNP,ai,B,1,block1,25,8
23,8542,hat,know,know,ai,C,1,block1,25,9
23,73483,muffins,MC5,MC,ai,NonProj,0,block1,25,10
23,6308,soccer,annoyed,annoyed,ai,C,1,block1,25,11
23,4404,alcatraz,discover,discover,ai,C,1,block1,25,12
23,10505,play,stop,stop,ai,C,0.72,block1,25,13
23,5051,cheat,MC2,MC,ai,NonProj,0,block1,25,14
23,7278,nails,stupid,stupid,ai,C,1,block1,25,15
23,3762,cheat,MC2,MC,projective,NonProj,0,block2,25,16
23,3323,veggie,NRRC,NRRC,projective,B,1,block2,25,17
23,4016,alcatraz,discover,discover,projective,C,1,block2,25,18
23,77970,cupcakes,MC4,MC,projective,NonProj,0,block2,25,19
23,3031,nails,stupid,stupid,projective,C,1,block2,25,20
23,3146,pizza,only,only,projective,C,0,block2,25,21
23,3300,aunt,possNP,possNP,projective,B,1,block2,25,22
23,2578,kids,MC1,MC,projective,NonProj,0,block2,25,23
23,3405,bmw,NomApp,NomApp,projective,B,1,block2,25,24
23,3974,muffins,MC5,MC,projective,NonProj,0,block2,25,25
23,7151,stuntman,MC3,MC,projective,NonProj,0,block2,25,26
23,10727,hat,know,know,projective,C,1,block2,25,27
23,5101,soccer,annoyed,annoyed,projective,C,1,block2,25,28
23,3141,boyfriend,MC6,MC,projective,NonProj,0,block2,25,29
23,5281,play,stop,stop,projective,C,0.63,block2,25,30
24,7920,pizza,MC4,MC,ai,NonProj,0.0600000000000001,block1,24,1
24,2722,alcatraz,MC5,MC,ai,NonProj,0.0600000000000001,block1,24,2
24,4110,bmw,MC2,MC,ai,NonProj,0.07,block1,24,3
24,9207,olives,annoyed,annoyed,ai,C,0.96,block1,24,4
24,4148,muffins,MC1,MC,ai,NonProj,0.07,block1,24,5
24,5009,cupcakes,know,know,ai,C,0.88,block1,24,6
24,5562,nails,MC3,MC,ai,NonProj,0.03,block1,24,7
24,5812,play,discover,discover,ai,C,0.94,block1,24,8
24,6450,aunt,possNP,possNP,ai,B,0.95,block1,24,9
24,15869,kids,only,only,ai,C,0.54,block1,24,10
24,4628,veggie,NomApp,NomApp,ai,B,0.94,block1,24,11
24,4418,cheat,stupid,stupid,ai,C,0.98,block1,24,12
24,5840,soccer,NRRC,NRRC,ai,B,0.93,block1,24,13
24,3859,stuntman,MC6,MC,ai,NonProj,0.09,block1,24,14
24,3984,ballet,stop,stop,ai,C,0.95,block1,24,15
24,5821,play,discover,discover,projective,C,0.05,block2,24,16
24,5200,nails,MC3,MC,projective,NonProj,0.09,block2,24,17
24,6184,cupcakes,know,know,projective,C,0.92,block2,24,18
24,3116,aunt,possNP,possNP,projective,B,0.92,block2,24,19
24,3956,bmw,MC2,MC,projective,NonProj,0.07,block2,24,20
24,3530,cheat,stupid,stupid,projective,C,0.93,block2,24,21
24,4464,pizza,MC4,MC,projective,NonProj,0.04,block2,24,22
24,5229,olives,annoyed,annoyed,projective,C,0.71,block2,24,23
24,4817,soccer,NRRC,NRRC,projective,B,0.92,block2,24,24
24,14584,kids,only,only,projective,C,0.43,block2,24,25
24,12371,ballet,stop,stop,projective,C,0.94,block2,24,26
24,5477,muffins,MC1,MC,projective,NonProj,0.02,block2,24,27
24,10117,stuntman,MC6,MC,projective,NonProj,0.02,block2,24,28
24,3085,veggie,NomApp,NomApp,projective,B,0.94,block2,24,29
24,4449,alcatraz,MC5,MC,projective,NonProj,0.06,block2,24,30
25,20377,olives,MC1,MC,ai,NonProj,0,block1,24,1
25,8477,pizza,MC4,MC,ai,NonProj,0.01,block1,24,2
25,14296,play,MC6,MC,ai,NonProj,0.2,block1,24,3
25,17615,alcatraz,discover,discover,ai,C,0.89,block1,24,4
25,11158,muffins,NRRC,NRRC,ai,B,0.86,block1,24,5
25,8019,stuntman,NomApp,NomApp,ai,B,0.91,block1,24,6
25,8173,boyfriend,possNP,possNP,ai,B,0.89,block1,24,7
25,7837,cupcakes,MC5,MC,ai,NonProj,0.0600000000000001,block1,24,8
25,9996,aunt,know,know,ai,C,0.97,block1,24,9
25,11587,bmw,MC3,MC,ai,NonProj,0.0600000000000001,block1,24,10
25,7650,hat,MC2,MC,ai,NonProj,0.0600000000000001,block1,24,11
25,10527,soccer,annoyed,annoyed,ai,C,0.95,block1,24,12
25,22119,kids,only,only,ai,C,0.93,block1,24,13
25,14491,nails,stop,stop,ai,C,0.33,block1,24,14
25,11057,cheat,stupid,stupid,ai,C,0.96,block1,24,15
25,11919,muffins,NRRC,NRRC,projective,B,0.9,block2,24,16
25,5498,olives,MC1,MC,projective,NonProj,0.05,block2,24,17
25,6730,cupcakes,MC5,MC,projective,NonProj,0.1,block2,24,18
25,5663,pizza,MC4,MC,projective,NonProj,0.11,block2,24,19
25,8950,soccer,annoyed,annoyed,projective,C,0.9,block2,24,20
25,7663,aunt,know,know,projective,C,0.83,block2,24,21
25,6911,play,MC6,MC,projective,NonProj,0.06,block2,24,22
25,7020,boyfriend,possNP,possNP,projective,B,0.94,block2,24,23
25,6016,stuntman,NomApp,NomApp,projective,B,0.86,block2,24,24
25,6000,hat,MC2,MC,projective,NonProj,0.1,block2,24,25
25,5973,bmw,MC3,MC,projective,NonProj,0.11,block2,24,26
25,8766,kids,only,only,projective,C,0.83,block2,24,27
25,10948,alcatraz,discover,discover,projective,C,0.85,block2,24,28
25,7549,nails,stop,stop,projective,C,0.86,block2,24,29
25,5517,cheat,stupid,stupid,projective,C,0.88,block2,24,30
26,13134,bmw,annoyed,annoyed,ai,C,1,block1,29,1
26,7331,cheat,MC2,MC,ai,NonProj,0,block1,29,2
26,4855,pizza,MC5,MC,ai,NonProj,0.02,block1,29,3
26,5271,boyfriend,MC3,MC,ai,NonProj,0,block1,29,4
26,6064,stuntman,stupid,stupid,ai,C,1,block1,29,5
26,6647,olives,MC1,MC,ai,NonProj,0,block1,29,6
26,6935,kids,MC4,MC,ai,NonProj,0,block1,29,7
26,15880,muffins,only,only,ai,C,0.93,block1,29,8
26,8070,cupcakes,NRRC,NRRC,ai,B,1,block1,29,9
26,6582,aunt,possNP,possNP,ai,B,1,block1,29,10
26,5351,veggie,NomApp,NomApp,ai,B,1,block1,29,11
26,10032,play,stop,stop,ai,C,1,block1,29,12
26,4335,ballet,MC6,MC,ai,NonProj,0,block1,29,13
26,6279,alcatraz,know,know,ai,C,1,block1,29,14
26,6503,nails,discover,discover,ai,C,1,block1,29,15
26,7973,play,stop,stop,projective,C,0.99,block2,29,16
26,7407,nails,discover,discover,projective,C,1,block2,29,17
26,4935,cupcakes,NRRC,NRRC,projective,B,1,block2,29,18
26,4464,veggie,NomApp,NomApp,projective,B,0.99,block2,29,19
26,5121,aunt,possNP,possNP,projective,B,1,block2,29,20
26,6791,bmw,annoyed,annoyed,projective,C,1,block2,29,21
26,5511,cheat,MC2,MC,projective,NonProj,0,block2,29,22
26,5600,kids,MC4,MC,projective,NonProj,0,block2,29,23
26,13094,stuntman,stupid,stupid,projective,C,0.93,block2,29,24
26,4129,olives,MC1,MC,projective,NonProj,0,block2,29,25
26,5919,boyfriend,MC3,MC,projective,NonProj,0,block2,29,26
26,3361,pizza,MC5,MC,projective,NonProj,0,block2,29,27
26,4943,ballet,MC6,MC,projective,NonProj,0,block2,29,28
26,7991,alcatraz,know,know,projective,C,1,block2,29,29
26,7487,muffins,only,only,projective,C,0.93,block2,29,30
27,28131,cheat,stupid,stupid,projective,C,0.99,block1,49,1
27,15511,pizza,annoyed,annoyed,projective,C,0.98,block1,49,2
27,9954,bmw,NomApp,NomApp,projective,B,0.99,block1,49,3
27,9639,alcatraz,MC3,MC,projective,NonProj,0,block1,49,4
27,7220,veggie,MC1,MC,projective,NonProj,0.02,block1,49,5
27,9178,boyfriend,possNP,possNP,projective,B,0.98,block1,49,6
27,11023,nails,stop,stop,projective,C,0.97,block1,49,7
27,8759,play,discover,discover,projective,C,0.98,block1,49,8
27,12840,ballet,MC4,MC,projective,NonProj,0,block1,49,9
27,8329,hat,know,know,projective,C,0.97,block1,49,10
27,7561,soccer,MC2,MC,projective,NonProj,0.02,block1,49,11
27,10166,aunt,MC5,MC,projective,NonProj,0.01,block1,49,12
27,10551,muffins,MC6,MC,projective,NonProj,0.01,block1,49,13
27,10271,cupcakes,NRRC,NRRC,projective,B,0.99,block1,49,14
27,8366,kids,only,only,projective,C,0.97,block1,49,15
27,8968,soccer,MC2,MC,ai,NonProj,0.02,block2,49,16
27,11218,kids,only,only,ai,C,0.98,block2,49,17
27,7348,play,discover,discover,ai,C,0.99,block2,49,18
27,6671,pizza,annoyed,annoyed,ai,C,0.99,block2,49,19
27,7136,bmw,NomApp,NomApp,ai,B,0.99,block2,49,20
27,5067,hat,know,know,ai,C,0.98,block2,49,21
27,5608,alcatraz,MC3,MC,ai,NonProj,0.01,block2,49,22
27,5809,aunt,MC5,MC,ai,NonProj,0.02,block2,49,23
27,6588,cheat,stupid,stupid,ai,C,0.99,block2,49,24
27,4829,ballet,MC4,MC,ai,NonProj,0.02,block2,49,25
27,8700,cupcakes,NRRC,NRRC,ai,B,0.99,block2,49,26
27,19758,nails,stop,stop,ai,C,0.99,block2,49,27
27,7018,muffins,MC6,MC,ai,NonProj,0.02,block2,49,28
27,5670,boyfriend,possNP,possNP,ai,B,0.98,block2,49,29
27,8343,veggie,MC1,MC,ai,NonProj,0.02,block2,49,30
28,18068,pizza,only,only,projective,C,1,block1,28,1
28,5544,cheat,MC2,MC,projective,NonProj,0,block1,28,2
28,5921,nails,stop,stop,projective,C,1,block1,28,3
28,5632,muffins,MC4,MC,projective,NonProj,0,block1,28,4
28,7871,soccer,annoyed,annoyed,projective,C,1,block1,28,5
28,5199,aunt,MC5,MC,projective,NonProj,0,block1,28,6
28,8822,veggie,NomApp,NomApp,projective,B,1,block1,28,7
28,7212,stuntman,stupid,stupid,projective,C,1,block1,28,8
28,4466,kids,MC3,MC,projective,NonProj,0,block1,28,9
28,6407,hat,know,know,projective,C,1,block1,28,10
28,5343,olives,MC6,MC,projective,NonProj,0,block1,28,11
28,5599,cupcakes,NRRC,NRRC,projective,B,1,block1,28,12
28,7384,play,discover,discover,projective,C,1,block1,28,13
28,6265,ballet,MC1,MC,projective,NonProj,0,block1,28,14
28,5119,boyfriend,possNP,possNP,projective,B,1,block1,28,15
28,10134,nails,stop,stop,ai,C,1,block2,28,16
28,7143,cheat,MC2,MC,ai,NonProj,0,block2,28,17
28,7311,muffins,MC4,MC,ai,NonProj,0,block2,28,18
28,9563,play,discover,discover,ai,C,1,block2,28,19
28,9002,kids,MC3,MC,ai,NonProj,0,block2,28,20
28,7391,pizza,only,only,ai,C,1,block2,28,21
28,5840,soccer,annoyed,annoyed,ai,C,1,block2,28,22
28,6592,veggie,NomApp,NomApp,ai,B,1,block2,28,23
28,6024,ballet,MC1,MC,ai,NonProj,0,block2,28,24
28,6031,boyfriend,possNP,possNP,ai,B,1,block2,28,25
28,4672,aunt,MC5,MC,ai,NonProj,0,block2,28,26
28,30502,olives,MC6,MC,ai,NonProj,0,block2,28,27
28,4801,stuntman,stupid,stupid,ai,C,1,block2,28,28
28,5374,cupcakes,NRRC,NRRC,ai,B,1,block2,28,29
28,4417,hat,know,know,ai,C,1,block2,28,30
29,14442,kids,MC2,MC,projective,NonProj,0.03,block1,42,1
29,13967,soccer,NRRC,NRRC,projective,B,0.93,block1,42,2
29,8144,olives,MC4,MC,projective,NonProj,0.08,block1,42,3
29,6328,stuntman,MC3,MC,projective,NonProj,0.05,block1,42,4
29,10064,veggie,NomApp,NomApp,projective,B,0.94,block1,42,5
29,5648,cupcakes,MC1,MC,projective,NonProj,0.06,block1,42,6
29,8375,cheat,stupid,stupid,projective,C,0.91,block1,42,7
29,14247,bmw,annoyed,annoyed,projective,C,0.94,block1,42,8
29,12151,alcatraz,discover,discover,projective,C,0.93,block1,42,9
29,6856,play,stop,stop,projective,C,0.95,block1,42,10
29,7693,aunt,possNP,possNP,projective,B,0.95,block1,42,11
29,7480,hat,know,know,projective,C,0.93,block1,42,12
29,8271,nails,MC6,MC,projective,NonProj,0.05,block1,42,13
29,6887,pizza,only,only,projective,C,0.93,block1,42,14
29,9048,ballet,MC5,MC,projective,NonProj,0.04,block1,42,15
29,9092,cupcakes,MC1,MC,ai,NonProj,0.04,block2,42,16
29,9528,hat,know,know,ai,C,0.96,block2,42,17
29,5208,ballet,MC5,MC,ai,NonProj,0.04,block2,42,18
29,4904,cheat,stupid,stupid,ai,C,0.94,block2,42,19
29,5568,olives,MC4,MC,ai,NonProj,0.0600000000000001,block2,42,20
29,5727,veggie,NomApp,NomApp,ai,B,0.96,block2,42,21
29,7113,aunt,possNP,possNP,ai,B,0.95,block2,42,22
29,9391,alcatraz,discover,discover,ai,C,0.95,block2,42,23
29,10135,pizza,only,only,ai,C,0.96,block2,42,24
29,8615,bmw,annoyed,annoyed,ai,C,0.95,block2,42,25
29,4983,stuntman,MC3,MC,ai,NonProj,0.05,block2,42,26
29,13240,nails,MC6,MC,ai,NonProj,0.03,block2,42,27
29,6055,kids,MC2,MC,ai,NonProj,0.05,block2,42,28
29,5928,soccer,NRRC,NRRC,ai,B,0.96,block2,42,29
29,6344,play,stop,stop,ai,C,0.96,block2,42,30
30,17569,boyfriend,MC6,MC,projective,NonProj,0.24,block1,22,1
30,11711,soccer,NRRC,NRRC,projective,B,0.79,block1,22,2
30,6919,hat,MC4,MC,projective,NonProj,0.21,block1,22,3
30,16928,kids,stupid,stupid,projective,C,0.62,block1,22,4
30,7784,bmw,MC3,MC,projective,NonProj,0.25,block1,22,5
30,10565,alcatraz,discover,discover,projective,C,0.12,block1,22,6
30,13495,veggie,NomApp,NomApp,projective,B,0.98,block1,22,7
30,7231,muffins,MC5,MC,projective,NonProj,0.03,block1,22,8
30,8641,cupcakes,know,know,projective,C,0.98,block1,22,9
30,7367,cheat,MC2,MC,projective,NonProj,0.1,block1,22,10
30,8064,aunt,possNP,possNP,projective,B,0.82,block1,22,11
30,5735,stuntman,MC1,MC,projective,NonProj,0.13,block1,22,12
30,7116,nails,stop,stop,projective,C,0.22,block1,22,13
30,9440,pizza,only,only,projective,C,0.28,block1,22,14
30,7111,olives,annoyed,annoyed,projective,C,0.98,block1,22,15
30,9061,kids,stupid,stupid,ai,C,0.97,block2,22,16
30,6024,cheat,MC2,MC,ai,NonProj,0,block2,22,17
30,5704,boyfriend,MC6,MC,ai,NonProj,0,block2,22,18
30,8511,soccer,NRRC,NRRC,ai,B,0.81,block2,22,19
30,12020,aunt,possNP,possNP,ai,B,0.95,block2,22,20
30,5479,bmw,MC3,MC,ai,NonProj,0.0600000000000001,block2,22,21
30,5769,stuntman,MC1,MC,ai,NonProj,0,block2,22,22
30,15144,alcatraz,discover,discover,ai,C,0.68,block2,22,23
30,14167,cupcakes,know,know,ai,C,0.95,block2,22,24
30,6673,olives,annoyed,annoyed,ai,C,0.93,block2,22,25
30,11636,pizza,only,only,ai,C,0.83,block2,22,26
30,8577,muffins,MC5,MC,ai,NonProj,0,block2,22,27
30,7127,nails,stop,stop,ai,C,0.94,block2,22,28
30,4849,hat,MC4,MC,ai,NonProj,0,block2,22,29
30,8575,veggie,NomApp,NomApp,ai,B,0.96,block2,22,30
31,10797,nails,stop,stop,ai,C,0.97,block1,45,1
31,8561,aunt,possNP,possNP,ai,B,0.99,block1,45,2
31,6133,boyfriend,MC1,MC,ai,NonProj,0,block1,45,3
31,9924,stuntman,MC5,MC,ai,NonProj,0.03,block1,45,4
31,6658,alcatraz,MC6,MC,ai,NonProj,0.02,block1,45,5
31,26609,cupcakes,MC2,MC,ai,NonProj,0.02,block1,45,6
31,11173,pizza,discover,discover,ai,C,1,block1,45,7
31,15502,ballet,NomApp,NomApp,ai,B,0.99,block1,45,8
31,26325,cheat,stupid,stupid,ai,C,0.98,block1,45,9
31,9910,soccer,annoyed,annoyed,ai,C,0.99,block1,45,10
31,13610,veggie,NRRC,NRRC,ai,B,0.97,block1,45,11
31,6609,olives,MC4,MC,ai,NonProj,0.02,block1,45,12
31,11068,play,know,know,ai,C,0.98,block1,45,13
31,14172,kids,only,only,ai,C,1,block1,45,14
31,6066,hat,MC3,MC,ai,NonProj,0.01,block1,45,15
31,8283,stuntman,MC5,MC,projective,NonProj,0.01,block2,45,16
31,7503,play,know,know,projective,C,0.99,block2,45,17
31,6911,pizza,discover,discover,projective,C,0.98,block2,45,18
31,8257,olives,MC4,MC,projective,NonProj,0.01,block2,45,19
31,42221,boyfriend,MC1,MC,projective,NonProj,0.03,block2,45,20
31,13491,nails,stop,stop,projective,C,0.99,block2,45,21
31,29218,soccer,annoyed,annoyed,projective,C,0.98,block2,45,22
31,5225,cupcakes,MC2,MC,projective,NonProj,0.03,block2,45,23
31,6236,aunt,possNP,possNP,projective,B,0.99,block2,45,24
31,5214,veggie,NRRC,NRRC,projective,B,0.97,block2,45,25
31,4924,hat,MC3,MC,projective,NonProj,0.01,block2,45,26
31,5209,alcatraz,MC6,MC,projective,NonProj,0.01,block2,45,27
31,5462,cheat,stupid,stupid,projective,C,0.97,block2,45,28
31,4501,kids,only,only,projective,C,0.98,block2,45,29
31,4687,ballet,NomApp,NomApp,projective,B,0.97,block2,45,30
32,14964,kids,MC5,MC,ai,NonProj,0.01,block1,49,1
32,6292,veggie,MC4,MC,ai,NonProj,0,block1,49,2
32,20607,nails,stupid,stupid,ai,C,0.51,block1,49,3
32,11774,aunt,know,know,ai,C,0.99,block1,49,4
32,11766,muffins,only,only,ai,C,1,block1,49,5
32,7018,bmw,NomApp,NomApp,ai,B,0.98,block1,49,6
32,10938,pizza,discover,discover,ai,C,0.99,block1,49,7
32,8315,boyfriend,possNP,possNP,ai,B,1,block1,49,8
32,7415,stuntman,MC1,MC,ai,NonProj,0.01,block1,49,9
32,11691,play,stop,stop,ai,C,0.99,block1,49,10
32,7145,cheat,MC2,MC,ai,NonProj,0,block1,49,11
32,5168,hat,MC6,MC,ai,NonProj,0.01,block1,49,12
32,5320,alcatraz,NRRC,NRRC,ai,B,0.99,block1,49,13
32,4977,soccer,MC3,MC,ai,NonProj,0.01,block1,49,14
32,6561,olives,annoyed,annoyed,ai,C,0.99,block1,49,15
32,7629,hat,MC6,MC,projective,NonProj,0.01,block2,49,16
32,8829,kids,MC5,MC,projective,NonProj,0.01,block2,49,17
32,6834,nails,stupid,stupid,projective,C,0.01,block2,49,18
32,6476,bmw,NomApp,NomApp,projective,B,1,block2,49,19
32,6004,pizza,discover,discover,projective,C,1,block2,49,20
32,5153,veggie,MC4,MC,projective,NonProj,0,block2,49,21
32,4312,soccer,MC3,MC,projective,NonProj,0.01,block2,49,22
32,5846,alcatraz,NRRC,NRRC,projective,B,1,block2,49,23
32,6534,olives,annoyed,annoyed,projective,C,1,block2,49,24
32,5770,cheat,MC2,MC,projective,NonProj,0,block2,49,25
32,4565,stuntman,MC1,MC,projective,NonProj,0.01,block2,49,26
32,9369,play,stop,stop,projective,C,0.85,block2,49,27
32,8016,muffins,only,only,projective,C,1,block2,49,28
32,6792,boyfriend,possNP,possNP,projective,B,0.99,block2,49,29
32,4946,aunt,know,know,projective,C,0.99,block2,49,30
33,32282,alcatraz,discover,discover,ai,C,0.9,block1,29,1
33,9444,bmw,MC4,MC,ai,NonProj,0.15,block1,29,2
33,13180,nails,stop,stop,ai,C,0.14,block1,29,3
33,9216,ballet,MC5,MC,ai,NonProj,0.01,block1,29,4
33,7176,play,MC2,MC,ai,NonProj,0.04,block1,29,5
33,14576,hat,annoyed,annoyed,ai,C,0.82,block1,29,6
33,11628,boyfriend,possNP,possNP,ai,B,0.95,block1,29,7
33,6860,pizza,MC1,MC,ai,NonProj,0.09,block1,29,8
33,6806,veggie,NomApp,NomApp,ai,B,0.93,block1,29,9
33,6524,kids,MC6,MC,ai,NonProj,0.11,block1,29,10
33,12361,aunt,NRRC,NRRC,ai,B,0.88,block1,29,11
33,6815,stuntman,stupid,stupid,ai,C,0.9,block1,29,12
33,8061,muffins,only,only,ai,C,0.2,block1,29,13
33,10346,cupcakes,know,know,ai,C,0.84,block1,29,14
33,4551,cheat,MC3,MC,ai,NonProj,0.03,block1,29,15
33,10739,cheat,MC3,MC,projective,NonProj,0.15,block2,29,16
33,6956,kids,MC6,MC,projective,NonProj,0.09,block2,29,17
33,9546,hat,annoyed,annoyed,projective,C,0.91,block2,29,18
33,5022,aunt,NRRC,NRRC,projective,B,0.9,block2,29,19
33,4662,bmw,MC4,MC,projective,NonProj,0.14,block2,29,20
33,5504,stuntman,stupid,stupid,projective,C,0.88,block2,29,21
33,5956,alcatraz,discover,discover,projective,C,0.82,block2,29,22
33,3510,boyfriend,possNP,possNP,projective,B,0.85,block2,29,23
33,7251,muffins,only,only,projective,C,0.92,block2,29,24
33,3290,veggie,NomApp,NomApp,projective,B,0.92,block2,29,25
33,4043,pizza,MC1,MC,projective,NonProj,0.1,block2,29,26
33,4688,ballet,MC5,MC,projective,NonProj,0.09,block2,29,27
33,4098,nails,stop,stop,projective,C,0.14,block2,29,28
33,6175,cupcakes,know,know,projective,C,0.78,block2,29,29
33,6568,play,MC2,MC,projective,NonProj,0.06,block2,29,30
34,20616,play,stop,stop,ai,C,0.34,block1,42,1
34,4799,veggie,MC4,MC,ai,NonProj,0,block1,42,2
34,15339,alcatraz,know,know,ai,C,1,block1,42,3
34,14064,nails,stupid,stupid,ai,C,0.69,block1,42,4
34,9837,ballet,MC5,MC,ai,NonProj,0,block1,42,5
34,8057,bmw,NomApp,NomApp,ai,B,0.9,block1,42,6
34,9007,aunt,possNP,possNP,ai,B,0.74,block1,42,7
34,18670,boyfriend,NRRC,NRRC,ai,B,1,block1,42,8
34,4515,muffins,MC2,MC,ai,NonProj,0,block1,42,9
34,10220,soccer,discover,discover,ai,C,1,block1,42,10
34,9245,pizza,only,only,ai,C,1,block1,42,11
34,3271,stuntman,MC3,MC,ai,NonProj,0,block1,42,12
34,10729,hat,annoyed,annoyed,ai,C,1,block1,42,13
34,4736,cupcakes,MC1,MC,ai,NonProj,0,block1,42,14
34,7654,kids,MC6,MC,ai,NonProj,0,block1,42,15
34,11249,aunt,possNP,possNP,projective,B,1,block2,42,16
34,8818,play,stop,stop,projective,C,1,block2,42,17
34,4298,bmw,NomApp,NomApp,projective,B,1,block2,42,18
34,7664,ballet,MC5,MC,projective,NonProj,0,block2,42,19
34,4617,stuntman,MC3,MC,projective,NonProj,0,block2,42,20
34,3558,alcatraz,know,know,projective,C,1,block2,42,21
34,5015,veggie,MC4,MC,projective,NonProj,0,block2,42,22
34,4139,cupcakes,MC1,MC,projective,NonProj,0,block2,42,23
34,15359,pizza,only,only,projective,C,0.99,block2,42,24
34,6626,hat,annoyed,annoyed,projective,C,0.99,block2,42,25
34,3450,soccer,discover,discover,projective,C,1,block2,42,26
34,4059,muffins,MC2,MC,projective,NonProj,0,block2,42,27
34,4144,kids,MC6,MC,projective,NonProj,0,block2,42,28
34,6606,nails,stupid,stupid,projective,C,1,block2,42,29
34,5385,boyfriend,NRRC,NRRC,projective,B,0.98,block2,42,30
35,12094,stuntman,stupid,stupid,ai,C,0.04,block1,41,1
35,6896,olives,MC3,MC,ai,NonProj,0.02,block1,41,2
35,8477,kids,MC5,MC,ai,NonProj,0.01,block1,41,3
35,7106,boyfriend,MC4,MC,ai,NonProj,0.02,block1,41,4
35,12591,alcatraz,NRRC,NRRC,ai,B,0.96,block1,41,5
35,14695,aunt,possNP,possNP,ai,B,0.34,block1,41,6
35,6776,muffins,MC1,MC,ai,NonProj,0.01,block1,41,7
35,6624,nails,MC6,MC,ai,NonProj,0.04,block1,41,8
35,8726,veggie,NomApp,NomApp,ai,B,0.93,block1,41,9
35,9032,ballet,stop,stop,ai,C,0.97,block1,41,10
35,8640,play,discover,discover,ai,C,0.95,block1,41,11
35,35522,pizza,only,only,ai,C,0.01,block1,41,12
35,4136,bmw,MC2,MC,ai,NonProj,0.02,block1,41,13
35,11618,cupcakes,know,know,ai,C,0.93,block1,41,14
35,9075,hat,annoyed,annoyed,ai,C,0.94,block1,41,15
35,9520,ballet,stop,stop,projective,C,0.97,block2,41,16
35,7525,bmw,MC2,MC,projective,NonProj,0.05,block2,41,17
35,5327,olives,MC3,MC,projective,NonProj,0.07,block2,41,18
35,8367,stuntman,stupid,stupid,projective,C,0.97,block2,41,19
35,5375,kids,MC5,MC,projective,NonProj,0.04,block2,41,20
35,5938,pizza,only,only,projective,C,0.05,block2,41,21
35,11629,play,discover,discover,projective,C,0.98,block2,41,22
35,8261,hat,annoyed,annoyed,projective,C,0.93,block2,41,23
35,5769,cupcakes,know,know,projective,C,0.98,block2,41,24
35,6185,veggie,NomApp,NomApp,projective,B,0.96,block2,41,25
35,6883,aunt,possNP,possNP,projective,B,0.98,block2,41,26
35,5111,alcatraz,NRRC,NRRC,projective,B,0.97,block2,41,27
35,3910,boyfriend,MC4,MC,projective,NonProj,0.97,block2,41,28
35,4305,muffins,MC1,MC,projective,NonProj,0.04,block2,41,29
35,6344,nails,MC6,MC,projective,NonProj,0.05,block2,41,30
37,21829,alcatraz,MC5,MC,ai,NonProj,0,block1,39,1
37,20992,muffins,only,only,ai,C,0,block1,39,2
37,8356,olives,MC4,MC,ai,NonProj,0,block1,39,3
37,10179,nails,MC6,MC,ai,NonProj,0,block1,39,4
37,49293,kids,stupid,stupid,ai,C,0,block1,39,5
37,9141,veggie,NomApp,NomApp,ai,B,1,block1,39,6
37,11983,play,stop,stop,ai,C,0,block1,39,7
37,10288,aunt,possNP,possNP,ai,B,0.98,block1,39,8
37,5362,cheat,MC3,MC,ai,NonProj,0.03,block1,39,9
37,12538,soccer,discover,discover,ai,C,0.98,block1,39,10
37,4768,stuntman,MC1,MC,ai,NonProj,0.02,block1,39,11
37,20509,cupcakes,know,know,ai,C,0.99,block1,39,12
37,9276,boyfriend,NRRC,NRRC,ai,B,0.99,block1,39,13
37,6056,pizza,annoyed,annoyed,ai,C,0.99,block1,39,14
37,7939,hat,MC2,MC,ai,NonProj,0.01,block1,39,15
37,10679,boyfriend,NRRC,NRRC,projective,B,0.99,block2,39,16
37,6953,play,stop,stop,projective,C,0.98,block2,39,17
37,12473,muffins,only,only,projective,C,0.98,block2,39,18
37,6130,pizza,annoyed,annoyed,projective,C,0.99,block2,39,19
37,8656,kids,stupid,stupid,projective,C,0.98,block2,39,20
37,4450,hat,MC2,MC,projective,NonProj,0.03,block2,39,21
37,7722,nails,MC6,MC,projective,NonProj,0.01,block2,39,22
37,5472,stuntman,MC1,MC,projective,NonProj,0.02,block2,39,23
37,8228,soccer,discover,discover,projective,C,0.01,block2,39,24
37,5764,veggie,NomApp,NomApp,projective,B,0.99,block2,39,25
37,4678,cheat,MC3,MC,projective,NonProj,0,block2,39,26
37,7928,olives,MC4,MC,projective,NonProj,0.01,block2,39,27
37,7496,aunt,possNP,possNP,projective,B,0.97,block2,39,28
37,8193,alcatraz,MC5,MC,projective,NonProj,0.01,block2,39,29
37,7926,cupcakes,know,know,projective,C,0.99,block2,39,30
38,15131,soccer,discover,discover,projective,C,0.67,block1,60,1
38,8428,veggie,NomApp,NomApp,projective,B,1,block1,60,2
38,16463,play,know,know,projective,C,0.88,block1,60,3
38,6440,boyfriend,possNP,possNP,projective,B,0.98,block1,60,4
38,7377,pizza,only,only,projective,C,1,block1,60,5
38,8487,bmw,MC3,MC,projective,NonProj,0,block1,60,6
38,6720,nails,stupid,stupid,projective,C,1,block1,60,7
38,6014,kids,MC5,MC,projective,NonProj,0,block1,60,8
38,5265,hat,MC4,MC,projective,NonProj,0,block1,60,9
38,10654,cupcakes,MC2,MC,projective,NonProj,0,block1,60,10
38,5590,alcatraz,NRRC,NRRC,projective,B,1,block1,60,11
38,5728,olives,annoyed,annoyed,projective,C,1,block1,60,12
38,6457,ballet,stop,stop,projective,C,1,block1,60,13
38,5856,cheat,MC1,MC,projective,NonProj,0,block1,60,14
38,6182,aunt,MC6,MC,projective,NonProj,0,block1,60,15
38,5956,cupcakes,MC2,MC,ai,NonProj,0,block2,60,16
38,5730,alcatraz,NRRC,NRRC,ai,B,1,block2,60,17
38,5334,olives,annoyed,annoyed,ai,C,1,block2,60,18
38,4839,cheat,MC1,MC,ai,NonProj,0,block2,60,19
38,11818,play,know,know,ai,C,1,block2,60,20
38,6109,nails,stupid,stupid,ai,C,1,block2,60,21
38,5623,pizza,only,only,ai,C,1,block2,60,22
38,4576,veggie,NomApp,NomApp,ai,B,1,block2,60,23
38,4968,bmw,MC3,MC,ai,NonProj,0,block2,60,24
38,4343,hat,MC4,MC,ai,NonProj,0,block2,60,25
38,5712,kids,MC5,MC,ai,NonProj,0,block2,60,26
38,4273,aunt,MC6,MC,ai,NonProj,0,block2,60,27
38,4086,boyfriend,possNP,possNP,ai,B,1,block2,60,28
38,6760,soccer,discover,discover,ai,C,0.94,block2,60,29
38,4530,ballet,stop,stop,ai,C,1,block2,60,30
39,20298,boyfriend,possNP,possNP,projective,B,0.93,block1,29,1
39,15817,play,MC1,MC,projective,NonProj,0.04,block1,29,2
39,18842,kids,only,only,projective,C,0.86,block1,29,3
39,15388,cupcakes,know,know,projective,C,0.74,block1,29,4
39,10183,bmw,NomApp,NomApp,projective,B,0.96,block1,29,5
39,12108,olives,MC5,MC,projective,NonProj,0.04,block1,29,6
39,10750,cheat,MC4,MC,projective,NonProj,0.03,block1,29,7
39,15753,pizza,discover,discover,projective,C,0.95,block1,29,8
39,7885,alcatraz,MC2,MC,projective,NonProj,0.05,block1,29,9
39,12090,ballet,stop,stop,projective,C,0.94,block1,29,10
39,6497,veggie,MC6,MC,projective,NonProj,0.03,block1,29,11
39,15780,nails,stupid,stupid,projective,C,0.73,block1,29,12
39,14998,soccer,annoyed,annoyed,projective,C,0.81,block1,29,13
39,11148,aunt,NRRC,NRRC,projective,B,0.9,block1,29,14
39,7993,stuntman,MC3,MC,projective,NonProj,0.04,block1,29,15
39,13209,olives,MC5,MC,ai,NonProj,0.03,block2,29,16
39,11472,cupcakes,know,know,ai,C,0.9,block2,29,17
39,7768,alcatraz,MC2,MC,ai,NonProj,0.03,block2,29,18
39,9167,bmw,NomApp,NomApp,ai,B,0.95,block2,29,19
39,7557,kids,only,only,ai,C,0.94,block2,29,20
39,5117,stuntman,MC3,MC,ai,NonProj,0.01,block2,29,21
39,7950,aunt,NRRC,NRRC,ai,B,0.95,block2,29,22
39,15450,pizza,discover,discover,ai,C,0.91,block2,29,23
39,5825,veggie,MC6,MC,ai,NonProj,0.03,block2,29,24
39,8359,nails,stupid,stupid,ai,C,0.95,block2,29,25
39,9405,ballet,stop,stop,ai,C,0.96,block2,29,26
39,5783,boyfriend,possNP,possNP,ai,B,0.95,block2,29,27
39,6260,play,MC1,MC,ai,NonProj,0.02,block2,29,28
39,11354,soccer,annoyed,annoyed,ai,C,0.96,block2,29,29
39,6282,cheat,MC4,MC,ai,NonProj,0.03,block2,29,30
40,9579,cupcakes,know,know,ai,C,0.99,block1,26,1
40,9478,muffins,NRRC,NRRC,ai,B,1,block1,26,2
40,7568,olives,MC1,MC,ai,NonProj,0,block1,26,3
40,17955,play,stop,stop,ai,C,0,block1,26,4
40,7397,veggie,NomApp,NomApp,ai,B,1,block1,26,5
40,5303,pizza,MC2,MC,ai,NonProj,0,block1,26,6
40,5320,hat,MC5,MC,ai,NonProj,0,block1,26,7
40,6963,ballet,MC3,MC,ai,NonProj,0,block1,26,8
40,11222,nails,MC6,MC,ai,NonProj,0,block1,26,9
40,7885,soccer,annoyed,annoyed,ai,C,1,block1,26,10
40,5746,bmw,possNP,possNP,ai,B,1,block1,26,11
40,8294,boyfriend,MC4,MC,ai,NonProj,0,block1,26,12
40,6309,stuntman,stupid,stupid,ai,C,1,block1,26,13
40,8135,kids,only,only,ai,C,1,block1,26,14
40,12116,alcatraz,discover,discover,ai,C,1,block1,26,15
40,11398,play,stop,stop,projective,C,1,block2,26,16
40,4769,hat,MC5,MC,projective,NonProj,0,block2,26,17
40,2627,pizza,MC2,MC,projective,NonProj,0,block2,26,18
40,2921,soccer,annoyed,annoyed,projective,C,1,block2,26,19
40,3174,stuntman,stupid,stupid,projective,C,1,block2,26,20
40,6297,cupcakes,know,know,projective,C,1,block2,26,21
40,5048,olives,MC1,MC,projective,NonProj,0,block2,26,22
40,4974,ballet,MC3,MC,projective,NonProj,0,block2,26,23
40,3610,veggie,NomApp,NomApp,projective,B,1,block2,26,24
40,2782,alcatraz,discover,discover,projective,C,1,block2,26,25
40,5859,muffins,NRRC,NRRC,projective,B,1,block2,26,26
40,4200,boyfriend,MC4,MC,projective,NonProj,0,block2,26,27
40,4082,bmw,possNP,possNP,projective,B,1,block2,26,28
40,8071,nails,MC6,MC,projective,NonProj,0,block2,26,29
40,4311,kids,only,only,projective,C,1,block2,26,30
42,10663,kids,only,only,projective,C,1,block1,45,1
42,5983,ballet,stop,stop,projective,C,0.99,block1,45,2
42,5120,olives,MC4,MC,projective,NonProj,0.01,block1,45,3
42,4359,boyfriend,MC1,MC,projective,NonProj,0,block1,45,4
42,6256,bmw,possNP,possNP,projective,B,1,block1,45,5
42,27119,soccer,annoyed,annoyed,projective,C,1,block1,45,6
42,5160,muffins,NRRC,NRRC,projective,B,1,block1,45,7
42,3230,stuntman,MC6,MC,projective,NonProj,0,block1,45,8
42,3545,hat,MC5,MC,projective,NonProj,0,block1,45,9
42,6897,aunt,know,know,projective,C,1,block1,45,10
42,3663,alcatraz,MC2,MC,projective,NonProj,0,block1,45,11
42,3807,veggie,NomApp,NomApp,projective,B,1,block1,45,12
42,3191,cheat,MC3,MC,projective,NonProj,0,block1,45,13
42,9080,nails,stupid,stupid,projective,C,1,block1,45,14
42,6552,play,discover,discover,projective,C,1,block1,45,15
42,5414,bmw,possNP,possNP,ai,B,1,block2,45,16
42,3071,stuntman,MC6,MC,ai,NonProj,0,block2,45,17
42,4968,ballet,stop,stop,ai,C,1,block2,45,18
42,3152,alcatraz,MC2,MC,ai,NonProj,0,block2,45,19
42,3544,cheat,MC3,MC,ai,NonProj,0,block2,45,20
42,3976,veggie,NomApp,NomApp,ai,B,0.99,block2,45,21
42,3392,boyfriend,MC1,MC,ai,NonProj,0,block2,45,22
42,5375,aunt,know,know,ai,C,1,block2,45,23
42,9719,kids,only,only,ai,C,1,block2,45,24
42,3801,hat,MC5,MC,ai,NonProj,0,block2,45,25
42,4488,nails,stupid,stupid,ai,C,1,block2,45,26
42,3080,olives,MC4,MC,ai,NonProj,0,block2,45,27
42,3999,soccer,annoyed,annoyed,ai,C,1,block2,45,28
42,6839,play,discover,discover,ai,C,1,block2,45,29
42,3280,muffins,NRRC,NRRC,ai,B,1,block2,45,30
43,41966,cupcakes,NRRC,NRRC,projective,B,1,block1,45,1
43,12359,alcatraz,MC6,MC,projective,NonProj,0,block1,45,2
43,14727,ballet,NomApp,NomApp,projective,B,1,block1,45,3
43,14104,nails,stop,stop,projective,C,1,block1,45,4
43,14497,olives,annoyed,annoyed,projective,C,1,block1,45,5
43,14765,kids,stupid,stupid,projective,C,1,block1,45,6
43,8144,bmw,possNP,possNP,projective,B,1,block1,45,7
43,9552,boyfriend,MC1,MC,projective,NonProj,0,block1,45,8
43,11848,pizza,discover,discover,projective,C,1,block1,45,9
43,10520,stuntman,MC5,MC,projective,NonProj,0,block1,45,10
43,6849,hat,MC2,MC,projective,NonProj,0,block1,45,11
43,15398,play,know,know,projective,C,1,block1,45,12
43,6520,aunt,MC3,MC,projective,NonProj,0,block1,45,13
43,9472,muffins,only,only,projective,C,1,block1,45,14
43,8304,cheat,MC4,MC,projective,NonProj,0,block1,45,15
43,14510,boyfriend,MC1,MC,ai,NonProj,0,block2,45,16
43,26561,nails,stop,stop,ai,C,0,block2,45,17
43,9816,cupcakes,NRRC,NRRC,ai,B,1,block2,45,18
43,9832,olives,annoyed,annoyed,ai,C,1,block2,45,19
43,7656,pizza,discover,discover,ai,C,1,block2,45,20
43,9720,ballet,NomApp,NomApp,ai,B,1,block2,45,21
43,7256,alcatraz,MC6,MC,ai,NonProj,0,block2,45,22
43,7416,aunt,MC3,MC,ai,NonProj,0,block2,45,23
43,12600,play,know,know,ai,C,1,block2,45,24
43,7351,cheat,MC4,MC,ai,NonProj,0,block2,45,25
43,12024,kids,stupid,stupid,ai,C,1,block2,45,26
43,9816,muffins,only,only,ai,C,1,block2,45,27
43,7287,stuntman,MC5,MC,ai,NonProj,0,block2,45,28
43,7512,bmw,possNP,possNP,ai,B,1,block2,45,29
43,6520,hat,MC2,MC,ai,NonProj,0,block2,45,30
44,32094,cupcakes,know,know,projective,C,0.97,block1,40,1
44,21236,soccer,discover,discover,projective,C,0.84,block1,40,2
44,10478,nails,stop,stop,projective,C,0.98,block1,40,3
44,11268,kids,only,only,projective,C,0.88,block1,40,4
44,9681,olives,annoyed,annoyed,projective,C,0.79,block1,40,5
44,9183,boyfriend,possNP,possNP,projective,B,0.83,block1,40,6
44,13608,cheat,stupid,stupid,projective,C,0.77,block1,40,7
44,9038,veggie,MC6,MC,projective,NonProj,0.19,block1,40,8
44,10596,hat,MC4,MC,projective,NonProj,0.12,block1,40,9
44,10010,ballet,MC1,MC,projective,NonProj,0.13,block1,40,10
44,12464,aunt,NRRC,NRRC,projective,B,0.96,block1,40,11
44,7174,muffins,MC3,MC,projective,NonProj,0.08,block1,40,12
44,7381,stuntman,NomApp,NomApp,projective,B,0.95,block1,40,13
44,6293,pizza,MC2,MC,projective,NonProj,0.03,block1,40,14
44,5818,bmw,MC5,MC,projective,NonProj,0.06,block1,40,15
44,25327,nails,stop,stop,ai,C,0.8,block2,40,16
44,13102,bmw,MC5,MC,ai,NonProj,0.01,block2,40,17
44,11367,boyfriend,possNP,possNP,ai,B,0.67,block2,40,18
44,8542,aunt,NRRC,NRRC,ai,B,0.91,block2,40,19
44,8691,pizza,MC2,MC,ai,NonProj,0.03,block2,40,20
44,5604,veggie,MC6,MC,ai,NonProj,0.05,block2,40,21
44,8220,cheat,stupid,stupid,ai,C,0.68,block2,40,22
44,12095,kids,only,only,ai,C,0.34,block2,40,23
44,7681,soccer,discover,discover,ai,C,0.76,block2,40,24
44,4216,stuntman,NomApp,NomApp,ai,B,0.93,block2,40,25
44,13472,muffins,MC3,MC,ai,NonProj,0.04,block2,40,26
44,5249,hat,MC4,MC,ai,NonProj,0.03,block2,40,27
44,6724,olives,annoyed,annoyed,ai,C,0.89,block2,40,28
44,5006,ballet,MC1,MC,ai,NonProj,0.02,block2,40,29
44,10515,cupcakes,know,know,ai,C,0.82,block2,40,30
45,13081,bmw,NomApp,NomApp,ai,B,1,block1,50,1
45,7085,aunt,possNP,possNP,ai,B,1,block1,50,2
45,20149,kids,stupid,stupid,ai,C,0.9,block1,50,3
45,5001,olives,MC5,MC,ai,NonProj,0,block1,50,4
45,4518,boyfriend,MC3,MC,ai,NonProj,0,block1,50,5
45,9748,hat,annoyed,annoyed,ai,C,0.97,block1,50,6
45,15535,play,know,know,ai,C,0.97,block1,50,7
45,9980,nails,stop,stop,ai,C,0,block1,50,8
45,4083,stuntman,MC2,MC,ai,NonProj,0,block1,50,9
45,6470,cheat,MC6,MC,ai,NonProj,0,block1,50,10
45,59362,muffins,NRRC,NRRC,ai,B,0.99,block1,50,11
45,6158,soccer,discover,discover,ai,C,1,block1,50,12
45,5594,pizza,only,only,ai,C,0,block1,50,13
45,4178,alcatraz,MC1,MC,ai,NonProj,0,block1,50,14
45,4003,veggie,MC4,MC,ai,NonProj,0,block1,50,15
45,10361,muffins,NRRC,NRRC,projective,B,1,block2,50,16
45,6117,soccer,discover,discover,projective,C,1,block2,50,17
45,4984,kids,stupid,stupid,projective,C,1,block2,50,18
45,3628,bmw,NomApp,NomApp,projective,B,1,block2,50,19
45,8006,boyfriend,MC3,MC,projective,NonProj,0,block2,50,20
45,3864,alcatraz,MC1,MC,projective,NonProj,0,block2,50,21
45,4720,nails,stop,stop,projective,C,0,block2,50,22
45,8298,play,know,know,projective,C,1,block2,50,23
45,3716,pizza,only,only,projective,C,0,block2,50,24
45,6214,hat,annoyed,annoyed,projective,C,1,block2,50,25
45,3586,olives,MC5,MC,projective,NonProj,0,block2,50,26
45,2381,veggie,MC4,MC,projective,NonProj,0,block2,50,27
45,5734,aunt,possNP,possNP,projective,B,1,block2,50,28
45,3199,cheat,MC6,MC,projective,NonProj,0,block2,50,29
45,2673,stuntman,MC2,MC,projective,NonProj,0,block2,50,30
46,16274,aunt,know,know,ai,C,0.99,block1,26,1
46,10242,ballet,MC3,MC,ai,NonProj,0.02,block1,26,2
46,11227,cupcakes,NRRC,NRRC,ai,B,0.99,block1,26,3
46,6166,olives,MC1,MC,ai,NonProj,0.04,block1,26,4
46,11323,play,stop,stop,ai,C,0.98,block1,26,5
46,12164,hat,annoyed,annoyed,ai,C,0.96,block1,26,6
46,6720,cheat,stupid,stupid,ai,C,0.97,block1,26,7
46,7874,kids,MC2,MC,ai,NonProj,0.02,block1,26,8
46,4548,stuntman,MC6,MC,ai,NonProj,0.02,block1,26,9
46,13424,alcatraz,discover,discover,ai,C,1,block1,26,10
46,4034,boyfriend,MC5,MC,ai,NonProj,0.04,block1,26,11
46,8828,nails,MC4,MC,ai,NonProj,0.04,block1,26,12
46,20544,muffins,only,only,ai,C,0.03,block1,26,13
46,8134,bmw,possNP,possNP,ai,B,1,block1,26,14
46,6977,veggie,NomApp,NomApp,ai,B,0.99,block1,26,15
46,18301,play,stop,stop,projective,C,0.96,block2,26,16
46,11703,veggie,NomApp,NomApp,projective,B,0.99,block2,26,17
46,7387,cupcakes,NRRC,NRRC,projective,B,0.98,block2,26,18
46,9401,hat,annoyed,annoyed,projective,C,0.99,block2,26,19
46,6102,stuntman,MC6,MC,projective,NonProj,0.01,block2,26,20
46,9814,alcatraz,discover,discover,projective,C,0.99,block2,26,21
46,17319,cheat,stupid,stupid,projective,C,1,block2,26,22
46,9676,kids,MC2,MC,projective,NonProj,0.02,block2,26,23
46,9285,bmw,possNP,possNP,projective,B,0.97,block2,26,24
46,7371,olives,MC1,MC,projective,NonProj,0.04,block2,26,25
46,6560,ballet,MC3,MC,projective,NonProj,0.04,block2,26,26
46,8857,aunt,know,know,projective,C,0.97,block2,26,27
46,9799,nails,MC4,MC,projective,NonProj,0.03,block2,26,28
46,5088,boyfriend,MC5,MC,projective,NonProj,0.01,block2,26,29
46,15520,muffins,only,only,projective,C,0.98,block2,26,30
48,12124,hat,possNP,possNP,projective,B,0.82,block1,33,1
48,16629,play,know,know,projective,C,0.25,block1,33,2
48,31033,cheat,stupid,stupid,projective,C,0.72,block1,33,3
48,10763,nails,stop,stop,projective,C,0.45,block1,33,4
48,15249,olives,annoyed,annoyed,projective,C,0.8,block1,33,5
48,7835,kids,MC1,MC,projective,NonProj,0.2,block1,33,6
48,10115,pizza,discover,discover,projective,C,0.76,block1,33,7
48,14279,ballet,MC6,MC,projective,NonProj,0.19,block1,33,8
48,7386,cupcakes,MC4,MC,projective,NonProj,0.24,block1,33,9
48,10421,soccer,MC5,MC,projective,NonProj,0.23,block1,33,10
48,25841,stuntman,NomApp,NomApp,projective,B,0.76,block1,33,11
48,13302,aunt,MC2,MC,projective,NonProj,0.09,block1,33,12
48,12560,alcatraz,NRRC,NRRC,projective,B,0.84,block1,33,13
48,11360,veggie,MC3,MC,projective,NonProj,0.08,block1,33,14
48,22015,muffins,only,only,projective,C,0.7,block1,33,15
48,12997,stuntman,NomApp,NomApp,ai,B,0.74,block2,33,16
48,10516,soccer,MC5,MC,ai,NonProj,0.2,block2,33,17
48,22904,play,know,know,ai,C,0.58,block2,33,18
48,11845,olives,annoyed,annoyed,ai,C,0.7,block2,33,19
48,9513,ballet,MC6,MC,ai,NonProj,0.22,block2,33,20
48,7602,muffins,only,only,ai,C,0.61,block2,33,21
48,6868,veggie,MC3,MC,ai,NonProj,0.12,block2,33,22
48,5216,hat,possNP,possNP,ai,B,0.73,block2,33,23
48,12308,aunt,MC2,MC,ai,NonProj,0.12,block2,33,24
48,11676,nails,stop,stop,ai,C,0.52,block2,33,25
48,9438,kids,MC1,MC,ai,NonProj,0.13,block2,33,26
48,10500,cupcakes,MC4,MC,ai,NonProj,0.18,block2,33,27
48,7191,pizza,discover,discover,ai,C,0.62,block2,33,28
48,10162,cheat,stupid,stupid,ai,C,0.53,block2,33,29
48,5903,alcatraz,NRRC,NRRC,ai,B,0.72,block2,33,30
49,17333,nails,discover,discover,ai,C,1,block1,24,1
49,8261,alcatraz,MC4,MC,ai,NonProj,0.02,block1,24,2
49,22478,stuntman,stupid,stupid,ai,C,0.6,block1,24,3
49,24492,boyfriend,MC6,MC,ai,NonProj,0.05,block1,24,4
49,5738,kids,MC5,MC,ai,NonProj,0.03,block1,24,5
49,5725,play,MC1,MC,ai,NonProj,0.03,block1,24,6
49,10966,muffins,only,only,ai,C,0.97,block1,24,7
49,3311,veggie,MC2,MC,ai,NonProj,0.0600000000000001,block1,24,8
49,9501,ballet,stop,stop,ai,C,0.95,block1,24,9
49,6397,cupcakes,NRRC,NRRC,ai,B,0.94,block1,24,10
49,5168,soccer,annoyed,annoyed,ai,C,0.99,block1,24,11
49,7159,cheat,know,know,ai,C,0.98,block1,24,12
49,6225,hat,possNP,possNP,ai,B,0.95,block1,24,13
49,5265,bmw,NomApp,NomApp,ai,B,0.97,block1,24,14
49,5717,aunt,MC3,MC,ai,NonProj,0.02,block1,24,15
49,7976,nails,discover,discover,projective,C,0.97,block2,24,16
49,4734,play,MC1,MC,projective,NonProj,0.04,block2,24,17
49,4590,kids,MC5,MC,projective,NonProj,0.04,block2,24,18
49,5922,stuntman,stupid,stupid,projective,C,0.53,block2,24,19
49,4560,bmw,NomApp,NomApp,projective,B,0.95,block2,24,20
49,7687,ballet,stop,stop,projective,C,0.95,block2,24,21
49,4692,alcatraz,MC4,MC,projective,NonProj,0.01,block2,24,22
49,3815,boyfriend,MC6,MC,projective,NonProj,0.04,block2,24,23
49,5397,muffins,only,only,projective,C,0.95,block2,24,24
49,3200,veggie,MC2,MC,projective,NonProj,0.01,block2,24,25
49,4821,hat,possNP,possNP,projective,B,0.98,block2,24,26
49,13783,aunt,MC3,MC,projective,NonProj,0.03,block2,24,27
49,5447,cupcakes,NRRC,NRRC,projective,B,0.98,block2,24,28
49,6069,soccer,annoyed,annoyed,projective,C,0.97,block2,24,29
49,5776,cheat,know,know,projective,C,0.96,block2,24,30
50,14942,stuntman,stupid,stupid,ai,C,1,block1,20,1
50,7656,bmw,MC5,MC,ai,NonProj,0,block1,20,2
50,20054,veggie,NomApp,NomApp,ai,B,1,block1,20,3
50,15488,boyfriend,possNP,possNP,ai,B,1,block1,20,4
50,16472,soccer,MC2,MC,ai,NonProj,0,block1,20,5
50,34943,nails,discover,discover,ai,C,0.71,block1,20,6
50,15247,kids,only,only,ai,C,0.31,block1,20,7
50,11271,pizza,annoyed,annoyed,ai,C,1,block1,20,8
50,9271,hat,MC4,MC,ai,NonProj,0,block1,20,9
50,6767,alcatraz,MC3,MC,ai,NonProj,0,block1,20,10
50,13080,ballet,stop,stop,ai,C,0.81,block1,20,11
50,5535,olives,MC6,MC,ai,NonProj,0,block1,20,12
50,5905,aunt,NRRC,NRRC,ai,B,1,block1,20,13
50,9544,cheat,know,know,ai,C,1,block1,20,14
50,6631,muffins,MC1,MC,ai,NonProj,0,block1,20,15
50,8254,alcatraz,MC3,MC,projective,NonProj,0,block2,20,16
50,15775,ballet,stop,stop,projective,C,1,block2,20,17
50,7529,veggie,NomApp,NomApp,projective,B,1,block2,20,18
50,6727,pizza,annoyed,annoyed,projective,C,1,block2,20,19
50,9768,bmw,MC5,MC,projective,NonProj,0.2,block2,20,20
50,5400,kids,only,only,projective,C,0.71,block2,20,21
50,10343,cheat,know,know,projective,C,1,block2,20,22
50,8416,olives,MC6,MC,projective,NonProj,0,block2,20,23
50,6680,aunt,NRRC,NRRC,projective,B,1,block2,20,24
50,11784,nails,discover,discover,projective,C,0.17,block2,20,25
50,6344,soccer,MC2,MC,projective,NonProj,0,block2,20,26
50,11839,stuntman,stupid,stupid,projective,C,0.91,block2,20,27
50,6320,boyfriend,possNP,possNP,projective,B,1,block2,20,28
50,9337,hat,MC4,MC,projective,NonProj,0.01,block2,20,29
50,11039,muffins,MC1,MC,projective,NonProj,0,block2,20,30
51,18959,hat,know,know,ai,C,1,block1,29,1
51,22191,cupcakes,MC1,MC,ai,NonProj,0.01,block1,29,2
51,11168,pizza,MC5,MC,ai,NonProj,0.01,block1,29,3
51,16305,bmw,possNP,possNP,ai,B,1,block1,29,4
51,14743,muffins,only,only,ai,C,1,block1,29,5
51,14952,alcatraz,NRRC,NRRC,ai,B,1,block1,29,6
51,9137,veggie,NomApp,NomApp,ai,B,1,block1,29,7
51,14761,soccer,discover,discover,ai,C,1,block1,29,8
51,7967,olives,annoyed,annoyed,ai,C,1,block1,29,9
51,16824,boyfriend,MC6,MC,ai,NonProj,0,block1,29,10
51,17425,kids,stupid,stupid,ai,C,1,block1,29,11
51,12056,ballet,MC4,MC,ai,NonProj,0,block1,29,12
51,23297,nails,stop,stop,ai,C,1,block1,29,13
51,10273,play,MC3,MC,ai,NonProj,0,block1,29,14
51,8799,aunt,MC2,MC,ai,NonProj,0.01,block1,29,15
51,11606,pizza,MC5,MC,projective,NonProj,0,block2,29,16
51,9760,veggie,NomApp,NomApp,projective,B,1,block2,29,17
51,10103,soccer,discover,discover,projective,C,1,block2,29,18
51,8584,cupcakes,MC1,MC,projective,NonProj,0,block2,29,19
51,7992,aunt,MC2,MC,projective,NonProj,0,block2,29,20
51,9561,hat,know,know,projective,C,1,block2,29,21
51,6144,ballet,MC4,MC,projective,NonProj,0,block2,29,22
51,14849,nails,stop,stop,projective,C,1,block2,29,23
51,6911,alcatraz,NRRC,NRRC,projective,B,1,block2,29,24
51,7369,play,MC3,MC,projective,NonProj,0,block2,29,25
51,5440,boyfriend,MC6,MC,projective,NonProj,0,block2,29,26
51,7489,kids,stupid,stupid,projective,C,1,block2,29,27
51,7816,olives,annoyed,annoyed,projective,C,1,block2,29,28
51,13272,muffins,only,only,projective,C,0.99,block2,29,29
51,5176,bmw,possNP,possNP,projective,B,1,block2,29,30
52,10408,pizza,only,only,projective,C,0.99,block1,38,1
52,9796,muffins,MC4,MC,projective,NonProj,0,block1,38,2
52,5631,veggie,MC5,MC,projective,NonProj,0,block1,38,3
52,6728,hat,possNP,possNP,projective,B,1,block1,38,4
52,3906,boyfriend,MC1,MC,projective,NonProj,0,block1,38,5
52,49052,nails,discover,discover,projective,C,0.98,block1,38,6
52,9310,olives,annoyed,annoyed,projective,C,1,block1,38,7
52,8781,alcatraz,MC2,MC,projective,NonProj,0.02,block1,38,8
52,6229,play,stop,stop,projective,C,1,block1,38,9
52,10122,cupcakes,NRRC,NRRC,projective,B,1,block1,38,10
52,7477,soccer,MC6,MC,projective,NonProj,0.01,block1,38,11
52,10584,kids,stupid,stupid,projective,C,1,block1,38,12
52,5594,stuntman,MC3,MC,projective,NonProj,0,block1,38,13
52,17227,aunt,know,know,projective,C,1,block1,38,14
52,7909,bmw,NomApp,NomApp,projective,B,1,block1,38,15
52,6778,soccer,MC6,MC,ai,NonProj,0,block2,38,16
52,9978,play,stop,stop,ai,C,1,block2,38,17
52,5056,veggie,MC5,MC,ai,NonProj,0,block2,38,18
52,6633,olives,annoyed,annoyed,ai,C,1,block2,38,19
52,100306,nails,discover,discover,ai,C,1,block2,38,20
52,6763,cupcakes,NRRC,NRRC,ai,B,1,block2,38,21
52,5929,muffins,MC4,MC,ai,NonProj,0,block2,38,22
52,8547,hat,possNP,possNP,ai,B,1,block2,38,23
52,6061,kids,stupid,stupid,ai,C,1,block2,38,24
52,14662,stuntman,MC3,MC,ai,NonProj,0,block2,38,25
52,3434,boyfriend,MC1,MC,ai,NonProj,0,block2,38,26
52,7833,aunt,know,know,ai,C,1,block2,38,27
52,4465,bmw,NomApp,NomApp,ai,B,1,block2,38,28
52,3602,alcatraz,MC2,MC,ai,NonProj,0,block2,38,29
52,5936,pizza,only,only,ai,C,1,block2,38,30
53,5610,ballet,stop,stop,projective,C,0.98,block1,27,1
53,8149,soccer,annoyed,annoyed,projective,C,0.91,block1,27,2
53,3866,stuntman,MC6,MC,projective,NonProj,0.02,block1,27,3
53,5188,veggie,NomApp,NomApp,projective,B,0.99,block1,27,4
53,3803,cupcakes,MC1,MC,projective,NonProj,0.02,block1,27,5
53,5764,aunt,NRRC,NRRC,projective,B,0.87,block1,27,6
53,6123,olives,MC3,MC,projective,NonProj,0.03,block1,27,7
53,6303,nails,stupid,stupid,projective,C,0.7,block1,27,8
53,5392,boyfriend,possNP,possNP,projective,B,0.99,block1,27,9
53,5427,pizza,MC5,MC,projective,NonProj,0.02,block1,27,10
53,4005,muffins,MC2,MC,projective,NonProj,0.02,block1,27,11
53,6400,bmw,MC4,MC,projective,NonProj,0.01,block1,27,12
53,8758,kids,only,only,projective,C,0.76,block1,27,13
53,7006,play,discover,discover,projective,C,0.84,block1,27,14
53,10040,cheat,know,know,projective,C,0.51,block1,27,15
53,10261,ballet,stop,stop,ai,C,0.99,block2,27,16
53,5075,aunt,NRRC,NRRC,ai,B,1,block2,27,17
53,6153,olives,MC3,MC,ai,NonProj,0,block2,27,18
53,3814,boyfriend,possNP,possNP,ai,B,0.99,block2,27,19
53,4095,veggie,NomApp,NomApp,ai,B,0.99,block2,27,20
53,8583,kids,only,only,ai,C,0.36,block2,27,21
53,5884,nails,stupid,stupid,ai,C,0.74,block2,27,22
53,4204,bmw,MC4,MC,ai,NonProj,0.01,block2,27,23
53,3378,stuntman,MC6,MC,ai,NonProj,0.01,block2,27,24
53,4489,cupcakes,MC1,MC,ai,NonProj,0,block2,27,25
53,5814,cheat,know,know,ai,C,0.99,block2,27,26
53,5049,pizza,MC5,MC,ai,NonProj,0.01,block2,27,27
53,4154,soccer,annoyed,annoyed,ai,C,0.99,block2,27,28
53,6058,muffins,MC2,MC,ai,NonProj,0.01,block2,27,29
53,6530,play,discover,discover,ai,C,0.99,block2,27,30
55,5835,boyfriend,MC1,MC,projective,NonProj,0.03,block1,62,1
55,4751,aunt,NRRC,NRRC,projective,B,0.95,block1,62,2
55,3854,cheat,MC4,MC,projective,NonProj,0.03,block1,62,3
55,5279,cupcakes,know,know,projective,C,0.96,block1,62,4
55,3423,pizza,only,only,projective,C,0.04,block1,62,5
55,3384,alcatraz,MC2,MC,projective,NonProj,0.01,block1,62,6
55,3151,muffins,MC6,MC,projective,NonProj,0.04,block1,62,7
55,5266,olives,annoyed,annoyed,projective,C,0.95,block1,62,8
55,5051,veggie,NomApp,NomApp,projective,B,0.96,block1,62,9
55,4264,ballet,MC5,MC,projective,NonProj,0.08,block1,62,10
55,6871,kids,MC3,MC,projective,NonProj,0.03,block1,62,11
55,20659,stuntman,stupid,stupid,projective,C,0.93,block1,62,12
55,5278,play,stop,stop,projective,C,0.93,block1,62,13
55,4311,soccer,discover,discover,projective,C,0.96,block1,62,14
55,5744,bmw,possNP,possNP,projective,B,0.93,block1,62,15
55,5796,bmw,possNP,possNP,ai,B,0.95,block2,62,16
55,3296,aunt,NRRC,NRRC,ai,B,0.91,block2,62,17
55,3670,boyfriend,MC1,MC,ai,NonProj,0.08,block2,62,18
55,5720,cupcakes,know,know,ai,C,0.92,block2,62,19
55,3720,pizza,only,only,ai,C,0.05,block2,62,20
55,5048,soccer,discover,discover,ai,C,0.94,block2,62,21
55,16601,veggie,NomApp,NomApp,ai,B,0.98,block2,62,22
55,5309,stuntman,stupid,stupid,ai,C,0.96,block2,62,23
55,5480,muffins,MC6,MC,ai,NonProj,0.07,block2,62,24
55,3457,olives,annoyed,annoyed,ai,C,0.93,block2,62,25
55,5432,play,stop,stop,ai,C,0.95,block2,62,26
55,3255,ballet,MC5,MC,ai,NonProj,0.08,block2,62,27
55,3303,kids,MC3,MC,ai,NonProj,0.0600000000000001,block2,62,28
55,4863,alcatraz,MC2,MC,ai,NonProj,0.0600000000000001,block2,62,29
55,3215,cheat,MC4,MC,ai,NonProj,0.04,block2,62,30
58,24561,kids,stupid,stupid,ai,C,0,block1,39,1
58,23596,nails,stop,stop,ai,C,1,block1,39,2
58,8148,olives,MC1,MC,ai,NonProj,0,block1,39,3
58,14560,soccer,NRRC,NRRC,ai,B,1,block1,39,4
58,9442,cheat,MC6,MC,ai,NonProj,0.03,block1,39,5
58,9368,muffins,MC2,MC,ai,NonProj,0,block1,39,6
58,16409,play,discover,discover,ai,C,1,block1,39,7
58,12814,bmw,annoyed,annoyed,ai,C,0.98,block1,39,8
58,27694,pizza,only,only,ai,C,1,block1,39,9
58,5659,veggie,MC3,MC,ai,NonProj,0.05,block1,39,10
58,11287,alcatraz,MC4,MC,ai,NonProj,0.01,block1,39,11
58,7562,boyfriend,possNP,possNP,ai,B,1,block1,39,12
58,7910,stuntman,NomApp,NomApp,ai,B,0.96,block1,39,13
58,10418,aunt,know,know,ai,C,0,block1,39,14
58,7042,hat,MC5,MC,ai,NonProj,0,block1,39,15
58,26094,nails,stop,stop,projective,C,0.36,block2,39,16
58,8191,hat,MC5,MC,projective,NonProj,0.07,block2,39,17
58,6319,cheat,MC6,MC,projective,NonProj,0.08,block2,39,18
58,9935,soccer,NRRC,NRRC,projective,B,0.95,block2,39,19
58,28341,aunt,know,know,projective,C,0.83,block2,39,20
58,21505,kids,stupid,stupid,projective,C,0,block2,39,21
58,10561,pizza,only,only,projective,C,0.92,block2,39,22
58,7256,bmw,annoyed,annoyed,projective,C,0.96,block2,39,23
58,4438,veggie,MC3,MC,projective,NonProj,0.17,block2,39,24
58,6947,alcatraz,MC4,MC,projective,NonProj,0.07,block2,39,25
58,5848,olives,MC1,MC,projective,NonProj,0.05,block2,39,26
58,4066,muffins,MC2,MC,projective,NonProj,0.06,block2,39,27
58,5612,stuntman,NomApp,NomApp,projective,B,0.9,block2,39,28
58,10797,boyfriend,possNP,possNP,projective,B,0.92,block2,39,29
58,15211,play,discover,discover,projective,C,0.92,block2,39,30
59,3892,alcatraz,MC1,MC,ai,NonProj,0,block1,27,1
59,2973,ballet,MC4,MC,ai,NonProj,0,block1,27,2
59,3517,stuntman,NomApp,NomApp,ai,B,1,block1,27,3
59,5983,bmw,know,know,ai,C,1,block1,27,4
59,3236,boyfriend,possNP,possNP,ai,B,1,block1,27,5
59,3303,muffins,only,only,ai,C,0,block1,27,6
59,4426,play,discover,discover,ai,C,0,block1,27,7
59,2392,cheat,MC2,MC,ai,NonProj,0,block1,27,8
59,4946,kids,stupid,stupid,ai,C,1,block1,27,9
59,4173,nails,stop,stop,ai,C,0,block1,27,10
59,3019,hat,MC5,MC,ai,NonProj,0,block1,27,11
59,2316,veggie,MC3,MC,ai,NonProj,0,block1,27,12
59,3580,aunt,NRRC,NRRC,ai,B,1,block1,27,13
59,2943,cupcakes,MC6,MC,ai,NonProj,0,block1,27,14
59,4077,soccer,annoyed,annoyed,ai,C,1,block1,27,15
59,3770,aunt,NRRC,NRRC,projective,B,1,block2,27,16
59,3241,alcatraz,MC1,MC,projective,NonProj,0,block2,27,17
59,4623,ballet,MC4,MC,projective,NonProj,0,block2,27,18
59,8907,muffins,only,only,projective,C,1,block2,27,19
59,3814,bmw,know,know,projective,C,1,block2,27,20
59,3365,hat,MC5,MC,projective,NonProj,0,block2,27,21
59,2716,veggie,MC3,MC,projective,NonProj,0,block2,27,22
59,4035,kids,stupid,stupid,projective,C,1,block2,27,23
59,3752,soccer,annoyed,annoyed,projective,C,1,block2,27,24
59,4045,stuntman,NomApp,NomApp,projective,B,1,block2,27,25
59,2731,boyfriend,possNP,possNP,projective,B,1,block2,27,26
59,2321,cheat,MC2,MC,projective,NonProj,0,block2,27,27
59,4726,cupcakes,MC6,MC,projective,NonProj,0,block2,27,28
59,3535,play,discover,discover,projective,C,1,block2,27,29
59,3267,nails,stop,stop,projective,C,1,block2,27,30
60,7638,ballet,MC1,MC,ai,NonProj,0.05,block1,20,1
60,4388,hat,know,know,ai,C,0.02,block1,20,2
60,5186,kids,MC6,MC,ai,NonProj,0.07,block1,20,3
60,7755,muffins,only,only,ai,C,0.13,block1,20,4
60,7098,alcatraz,discover,discover,ai,C,0.93,block1,20,5
60,5378,play,stop,stop,ai,C,0.27,block1,20,6
60,7446,aunt,NRRC,NRRC,ai,B,0.78,block1,20,7
60,9432,nails,stupid,stupid,ai,C,0.66,block1,20,8
60,7489,boyfriend,possNP,possNP,ai,B,0.93,block1,20,9
60,5968,veggie,MC4,MC,ai,NonProj,0.08,block1,20,10
60,3159,bmw,MC5,MC,ai,NonProj,0,block1,20,11
60,4567,olives,MC2,MC,ai,NonProj,0.1,block1,20,12
60,2752,cupcakes,MC3,MC,ai,NonProj,0.0600000000000001,block1,20,13
60,4511,pizza,annoyed,annoyed,ai,C,0.87,block1,20,14
60,3638,stuntman,NomApp,NomApp,ai,B,0.98,block1,20,15
60,5633,cupcakes,MC3,MC,projective,NonProj,0.07,block2,20,16
60,3868,kids,MC6,MC,projective,NonProj,0.06,block2,20,17
60,3455,bmw,MC5,MC,projective,NonProj,0.03,block2,20,18
60,6081,stuntman,NomApp,NomApp,projective,B,0.97,block2,20,19
60,4578,alcatraz,discover,discover,projective,C,0.78,block2,20,20
60,7309,nails,stupid,stupid,projective,C,0.56,block2,20,21
60,4329,pizza,annoyed,annoyed,projective,C,0.95,block2,20,22
60,4428,hat,know,know,projective,C,0.91,block2,20,23
60,3937,ballet,MC1,MC,projective,NonProj,0.13,block2,20,24
60,3620,olives,MC2,MC,projective,NonProj,0.15,block2,20,25
60,5716,muffins,only,only,projective,C,0.84,block2,20,26
60,5079,play,stop,stop,projective,C,0.8,block2,20,27
60,3316,boyfriend,possNP,possNP,projective,B,0.9,block2,20,28
60,5398,aunt,NRRC,NRRC,projective,B,0.84,block2,20,29
60,2711,veggie,MC4,MC,projective,NonProj,0.14,block2,20,30
61,17948,hat,annoyed,annoyed,projective,C,1,block1,25,1
61,19780,aunt,possNP,possNP,projective,B,1,block1,25,2
61,189290,kids,MC6,MC,projective,NonProj,0,block1,25,3
61,21518,bmw,know,know,projective,C,1,block1,25,4
61,6159,cheat,MC1,MC,projective,NonProj,0,block1,25,5
61,20243,ballet,NomApp,NomApp,projective,B,1,block1,25,6
61,4528,veggie,MC2,MC,projective,NonProj,0,block1,25,7
61,7618,alcatraz,MC4,MC,projective,NonProj,0,block1,25,8
61,6700,olives,MC5,MC,projective,NonProj,0,block1,25,9
61,7718,play,stop,stop,projective,C,1,block1,25,10
61,17572,pizza,only,only,projective,C,1,block1,25,11
61,8082,soccer,discover,discover,projective,C,1,block1,25,12
61,26140,stuntman,stupid,stupid,projective,C,0,block1,25,13
61,15916,boyfriend,NRRC,NRRC,projective,B,1,block1,25,14
61,9690,nails,MC3,MC,projective,NonProj,0,block1,25,15
61,15236,pizza,only,only,ai,C,1,block2,25,16
61,11536,hat,annoyed,annoyed,ai,C,1,block2,25,17
61,9734,kids,MC6,MC,ai,NonProj,0,block2,25,18
61,4264,ballet,NomApp,NomApp,ai,B,1,block2,25,19
61,8066,aunt,possNP,possNP,ai,B,1,block2,25,20
61,5662,boyfriend,NRRC,NRRC,ai,B,1,block2,25,21
61,10400,soccer,discover,discover,ai,C,1,block2,25,22
61,4504,olives,MC5,MC,ai,NonProj,0,block2,25,23
61,9062,cheat,MC1,MC,ai,NonProj,0,block2,25,24
61,34760,stuntman,stupid,stupid,ai,C,1,block2,25,25
61,7222,bmw,know,know,ai,C,1,block2,25,26
61,110898,play,stop,stop,ai,C,1,block2,25,27
61,8842,nails,MC3,MC,ai,NonProj,0,block2,25,28
61,3569,veggie,MC2,MC,ai,NonProj,0.02,block2,25,29
61,2896,alcatraz,MC4,MC,ai,NonProj,0,block2,25,30
62,18501,play,stop,stop,ai,C,1,block1,50,1
62,13207,alcatraz,MC5,MC,ai,NonProj,0.03,block1,50,2
62,29328,kids,only,only,ai,C,0.98,block1,50,3
62,8912,olives,MC4,MC,ai,NonProj,0.03,block1,50,4
62,38544,ballet,MC6,MC,ai,NonProj,0.49,block1,50,5
62,39295,soccer,discover,discover,ai,C,0.05,block1,50,6
62,13038,bmw,annoyed,annoyed,ai,C,1,block1,50,7
62,10351,nails,stupid,stupid,ai,C,0.98,block1,50,8
62,8312,stuntman,NomApp,NomApp,ai,B,0.98,block1,50,9
62,8720,cheat,MC2,MC,ai,NonProj,0.05,block1,50,10
62,14640,muffins,NRRC,NRRC,ai,B,0.97,block1,50,11
62,11137,aunt,possNP,possNP,ai,B,0.98,block1,50,12
62,6520,pizza,MC1,MC,ai,NonProj,0.01,block1,50,13
62,10494,veggie,MC3,MC,ai,NonProj,0.02,block1,50,14
62,9440,cupcakes,know,know,ai,C,1,block1,50,15
62,19501,alcatraz,MC5,MC,projective,NonProj,0.01,block2,50,16
62,7655,olives,MC4,MC,projective,NonProj,0,block2,50,17
62,7816,muffins,NRRC,NRRC,projective,B,0.98,block2,50,18
62,8632,play,stop,stop,projective,C,0.98,block2,50,19
62,13128,cheat,MC2,MC,projective,NonProj,0.01,block2,50,20
62,7801,pizza,MC1,MC,projective,NonProj,0.02,block2,50,21
62,11376,ballet,MC6,MC,projective,NonProj,0.02,block2,50,22
62,10975,soccer,discover,discover,projective,C,0.02,block2,50,23
62,6457,stuntman,NomApp,NomApp,projective,B,0.97,block2,50,24
62,16479,kids,only,only,projective,C,0.98,block2,50,25
62,13600,nails,stupid,stupid,projective,C,0.96,block2,50,26
62,9528,aunt,possNP,possNP,projective,B,0.97,block2,50,27
62,9816,cupcakes,know,know,projective,C,0.97,block2,50,28
62,11128,bmw,annoyed,annoyed,projective,C,0.98,block2,50,29
62,5072,veggie,MC3,MC,projective,NonProj,0.01,block2,50,30
63,12277,ballet,MC6,MC,projective,NonProj,0.19,block1,22,1
63,6226,stuntman,NomApp,NomApp,projective,B,1,block1,22,2
63,4790,olives,MC5,MC,projective,NonProj,0.04,block1,22,3
63,7188,kids,stupid,stupid,projective,C,0.13,block1,22,4
63,4333,boyfriend,MC1,MC,projective,NonProj,0.03,block1,22,5
63,2723,bmw,possNP,possNP,projective,B,0.97,block1,22,6
63,3773,alcatraz,MC3,MC,projective,NonProj,0.02,block1,22,7
63,6703,soccer,annoyed,annoyed,projective,C,0.98,block1,22,8
63,5821,muffins,only,only,projective,C,0.98,block1,22,9
63,4667,pizza,MC4,MC,projective,NonProj,0.14,block1,22,10
63,42747,nails,stop,stop,projective,C,0.97,block1,22,11
63,3420,hat,MC2,MC,projective,NonProj,0.03,block1,22,12
63,7799,cheat,know,know,projective,C,0.98,block1,22,13
63,27071,play,discover,discover,projective,C,0.98,block1,22,14
63,9437,cupcakes,NRRC,NRRC,projective,B,0.92,block1,22,15
63,8797,soccer,annoyed,annoyed,ai,C,1,block2,22,16
63,4339,ballet,MC6,MC,ai,NonProj,0.07,block2,22,17
63,5826,muffins,only,only,ai,C,0.96,block2,22,18
63,4556,nails,stop,stop,ai,C,0.03,block2,22,19
63,3094,hat,MC2,MC,ai,NonProj,0.04,block2,22,20
63,4227,olives,MC5,MC,ai,NonProj,0.03,block2,22,21
63,3791,boyfriend,MC1,MC,ai,NonProj,0.01,block2,22,22
63,90175,alcatraz,MC3,MC,ai,NonProj,0.08,block2,22,23
63,3036,pizza,MC4,MC,ai,NonProj,0.12,block2,22,24
63,5964,play,discover,discover,ai,C,0.83,block2,22,25
63,3681,kids,stupid,stupid,ai,C,0.09,block2,22,26
63,6815,bmw,possNP,possNP,ai,B,0.83,block2,22,27
63,4302,cheat,know,know,ai,C,0.82,block2,22,28
63,3114,stuntman,NomApp,NomApp,ai,B,0.87,block2,22,29
63,3649,cupcakes,NRRC,NRRC,ai,B,0.93,block2,22,30
64,15108,soccer,discover,discover,ai,C,0.98,block1,33,1
64,6340,kids,MC4,MC,ai,NonProj,0.01,block1,33,2
64,9855,cupcakes,MC2,MC,ai,NonProj,0.03,block1,33,3
64,7668,veggie,MC1,MC,ai,NonProj,0.01,block1,33,4
64,8948,aunt,MC6,MC,ai,NonProj,0.01,block1,33,5
64,7672,muffins,only,only,ai,C,0,block1,33,6
64,11682,ballet,stop,stop,ai,C,0.98,block1,33,7
64,25319,bmw,NomApp,NomApp,ai,B,0.99,block1,33,8
64,8615,nails,stupid,stupid,ai,C,0.98,block1,33,9
64,7400,hat,possNP,possNP,ai,B,0.99,block1,33,10
64,5827,boyfriend,MC3,MC,ai,NonProj,0,block1,33,11
64,9305,alcatraz,NRRC,NRRC,ai,B,0.98,block1,33,12
64,38050,play,MC5,MC,ai,NonProj,0.03,block1,33,13
64,34439,cheat,know,know,ai,C,1,block1,33,14
64,6733,olives,annoyed,annoyed,ai,C,0.98,block1,33,15
64,8208,play,MC5,MC,projective,NonProj,0.01,block2,33,16
64,6923,aunt,MC6,MC,projective,NonProj,0.02,block2,33,17
64,7704,olives,annoyed,annoyed,projective,C,1,block2,33,18
64,7462,cheat,know,know,projective,C,1,block2,33,19
64,10411,alcatraz,NRRC,NRRC,projective,B,0.97,block2,33,20
64,7325,cupcakes,MC2,MC,projective,NonProj,0.01,block2,33,21
64,7180,soccer,discover,discover,projective,C,0.97,block2,33,22
64,4409,veggie,MC1,MC,projective,NonProj,0.02,block2,33,23
64,5728,nails,stupid,stupid,projective,C,0.98,block2,33,24
64,5496,bmw,NomApp,NomApp,projective,B,1,block2,33,25
64,23688,kids,MC4,MC,projective,NonProj,0,block2,33,26
64,7582,muffins,only,only,projective,C,0,block2,33,27
64,3742,boyfriend,MC3,MC,projective,NonProj,0.01,block2,33,28
64,8982,hat,possNP,possNP,projective,B,0.99,block2,33,29
64,10958,ballet,stop,stop,projective,C,1,block2,33,30
65,9016,hat,MC1,MC,ai,NonProj,0.03,block1,22,1
65,5155,aunt,possNP,possNP,ai,B,1,block1,22,2
65,10309,veggie,NRRC,NRRC,ai,B,1,block1,22,3
65,3892,boyfriend,MC2,MC,ai,NonProj,0,block1,22,4
65,4289,olives,MC6,MC,ai,NonProj,0,block1,22,5
65,4785,cheat,MC4,MC,ai,NonProj,0,block1,22,6
65,42297,bmw,NomApp,NomApp,ai,B,1,block1,22,7
65,3884,pizza,annoyed,annoyed,ai,C,1,block1,22,8
65,3771,alcatraz,MC5,MC,ai,NonProj,0,block1,22,9
65,3163,stuntman,MC3,MC,ai,NonProj,0,block1,22,10
65,5485,cupcakes,know,know,ai,C,1,block1,22,11
65,37269,play,discover,discover,ai,C,1,block1,22,12
65,5854,ballet,stop,stop,ai,C,1,block1,22,13
65,4424,nails,stupid,stupid,ai,C,1,block1,22,14
65,5277,muffins,only,only,ai,C,1,block1,22,15
65,4486,alcatraz,MC5,MC,projective,NonProj,0,block2,22,16
65,31293,muffins,only,only,projective,C,1,block2,22,17
65,4043,ballet,stop,stop,projective,C,1,block2,22,18
65,4020,play,discover,discover,projective,C,1,block2,22,19
65,4720,olives,MC6,MC,projective,NonProj,1,block2,22,20
65,4832,pizza,annoyed,annoyed,projective,C,1,block2,22,21
65,4335,bmw,NomApp,NomApp,projective,B,0.99,block2,22,22
65,37317,nails,stupid,stupid,projective,C,1,block2,22,23
65,4033,cupcakes,know,know,projective,C,1,block2,22,24
65,4208,aunt,possNP,possNP,projective,B,1,block2,22,25
65,3916,veggie,NRRC,NRRC,projective,B,1,block2,22,26
65,4140,hat,MC1,MC,projective,NonProj,0,block2,22,27
65,42108,boyfriend,MC2,MC,projective,NonProj,0,block2,22,28
65,3326,stuntman,MC3,MC,projective,NonProj,0,block2,22,29
65,4228,cheat,MC4,MC,projective,NonProj,0,block2,22,30
66,14461,olives,MC1,MC,projective,NonProj,0.01,block1,41,1
66,10431,kids,only,only,projective,C,0.03,block1,41,2
66,32533,hat,know,know,projective,C,1,block1,41,3
66,6253,ballet,stop,stop,projective,C,1,block1,41,4
66,9874,soccer,annoyed,annoyed,projective,C,1,block1,41,5
66,7579,aunt,MC4,MC,projective,NonProj,0,block1,41,6
66,21740,bmw,MC3,MC,projective,NonProj,0,block1,41,7
66,31677,play,MC6,MC,projective,NonProj,0,block1,41,8
66,6156,cheat,MC5,MC,projective,NonProj,0,block1,41,9
66,7493,nails,MC2,MC,projective,NonProj,0,block1,41,10
66,9671,stuntman,stupid,stupid,projective,C,1,block1,41,11
66,9351,veggie,NomApp,NomApp,projective,B,1,block1,41,12
66,7798,cupcakes,NRRC,NRRC,projective,B,1,block1,41,13
66,9297,boyfriend,possNP,possNP,projective,B,1,block1,41,14
66,24765,alcatraz,discover,discover,projective,C,1,block1,41,15
66,5348,aunt,MC4,MC,ai,NonProj,0,block2,41,16
66,13729,kids,only,only,ai,C,0.19,block2,41,17
66,3694,cheat,MC5,MC,ai,NonProj,0,block2,41,18
66,6518,soccer,annoyed,annoyed,ai,C,1,block2,41,19
66,5627,stuntman,stupid,stupid,ai,C,1,block2,41,20
66,6980,alcatraz,discover,discover,ai,C,1,block2,41,21
66,9244,hat,know,know,ai,C,1,block2,41,22
66,15322,play,MC6,MC,ai,NonProj,0,block2,41,23
66,7221,olives,MC1,MC,ai,NonProj,0,block2,41,24
66,10635,bmw,MC3,MC,ai,NonProj,0,block2,41,25
66,10038,veggie,NomApp,NomApp,ai,B,1,block2,41,26
66,6342,ballet,stop,stop,ai,C,1,block2,41,27
66,7441,nails,MC2,MC,ai,NonProj,0,block2,41,28
66,9167,boyfriend,possNP,possNP,ai,B,1,block2,41,29
66,12457,cupcakes,NRRC,NRRC,ai,B,1,block2,41,30
67,9255,stuntman,stupid,stupid,projective,C,0.01,block1,22,1
67,3600,boyfriend,MC1,MC,projective,NonProj,0.01,block1,22,2
67,4770,cupcakes,MC3,MC,projective,NonProj,0.02,block1,22,3
67,8404,soccer,discover,discover,projective,C,0.97,block1,22,4
67,6408,muffins,only,only,projective,C,0.99,block1,22,5
67,5372,bmw,NomApp,NomApp,projective,B,0.97,block1,22,6
67,5786,veggie,NRRC,NRRC,projective,B,0.98,block1,22,7
67,8077,pizza,annoyed,annoyed,projective,C,0.98,block1,22,8
67,8119,play,MC2,MC,projective,NonProj,0,block1,22,9
67,7829,ballet,MC5,MC,projective,NonProj,0.02,block1,22,10
67,4290,hat,possNP,possNP,projective,B,0.98,block1,22,11
67,4598,alcatraz,MC6,MC,projective,NonProj,0.03,block1,22,12
67,5738,nails,stop,stop,projective,C,0.02,block1,22,13
67,4913,kids,MC4,MC,projective,NonProj,0.01,block1,22,14
67,9747,cheat,know,know,projective,C,0.97,block1,22,15
67,6582,kids,MC4,MC,ai,NonProj,0.01,block2,22,16
67,6937,soccer,discover,discover,ai,C,0.98,block2,22,17
67,14839,nails,stop,stop,ai,C,0.02,block2,22,18
67,4137,stuntman,stupid,stupid,ai,C,0.97,block2,22,19
67,3351,ballet,MC5,MC,ai,NonProj,0.05,block2,22,20
67,4553,cupcakes,MC3,MC,ai,NonProj,0.01,block2,22,21
67,4411,play,MC2,MC,ai,NonProj,0.02,block2,22,22
67,3137,alcatraz,MC6,MC,ai,NonProj,0.04,block2,22,23
67,3515,boyfriend,MC1,MC,ai,NonProj,0.01,block2,22,24
67,3448,bmw,NomApp,NomApp,ai,B,0.97,block2,22,25
67,3852,muffins,only,only,ai,C,0.99,block2,22,26
67,5956,cheat,know,know,ai,C,1,block2,22,27
67,5447,veggie,NRRC,NRRC,ai,B,1,block2,22,28
67,9205,pizza,annoyed,annoyed,ai,C,0.97,block2,22,29
67,3283,hat,possNP,possNP,ai,B,0.99,block2,22,30
70,14875,alcatraz,discover,discover,projective,C,0.98,block1,28,1
70,37058,veggie,MC2,MC,projective,NonProj,0.04,block1,28,2
70,25303,bmw,NomApp,NomApp,projective,B,0.02,block1,28,3
70,10448,kids,stupid,stupid,projective,C,0.01,block1,28,4
70,5698,hat,possNP,possNP,projective,B,0.96,block1,28,5
70,6180,olives,MC3,MC,projective,NonProj,0.02,block1,28,6
70,9090,pizza,only,only,projective,C,0.97,block1,28,7
70,9304,cheat,MC1,MC,projective,NonProj,0.03,block1,28,8
70,6096,nails,stop,stop,projective,C,0.01,block1,28,9
70,7339,soccer,annoyed,annoyed,projective,C,0.98,block1,28,10
70,9136,play,know,know,projective,C,0.97,block1,28,11
70,7549,muffins,MC5,MC,projective,NonProj,0.02,block1,28,12
70,30875,ballet,MC6,MC,projective,NonProj,0.02,block1,28,13
70,4340,aunt,MC4,MC,projective,NonProj,0,block1,28,14
70,7380,boyfriend,NRRC,NRRC,projective,B,0.02,block1,28,15
70,10016,bmw,NomApp,NomApp,ai,B,0.03,block2,28,16
70,11633,boyfriend,NRRC,NRRC,ai,B,1,block2,28,17
70,7191,veggie,MC2,MC,ai,NonProj,0.02,block2,28,18
70,5385,cheat,MC1,MC,ai,NonProj,0.04,block2,28,19
70,7015,alcatraz,discover,discover,ai,C,0.96,block2,28,20
70,5512,olives,MC3,MC,ai,NonProj,0.02,block2,28,21
70,25292,nails,stop,stop,ai,C,0.96,block2,28,22
70,6036,muffins,MC5,MC,ai,NonProj,0.04,block2,28,23
70,6419,hat,possNP,possNP,ai,B,1,block2,28,24
70,7320,kids,stupid,stupid,ai,C,0.97,block2,28,25
70,7772,play,know,know,ai,C,0.97,block2,28,26
70,7108,aunt,MC4,MC,ai,NonProj,0.04,block2,28,27
70,7800,ballet,MC6,MC,ai,NonProj,0.04,block2,28,28
70,5495,pizza,only,only,ai,C,0.95,block2,28,29
70,6328,soccer,annoyed,annoyed,ai,C,0.98,block2,28,30
73,12508,play,stop,stop,ai,C,1,block1,51,1
73,6998,cupcakes,MC6,MC,ai,NonProj,0.01,block1,51,2
73,7265,hat,possNP,possNP,ai,B,1,block1,51,3
73,8320,stuntman,MC4,MC,ai,NonProj,0,block1,51,4
73,18231,muffins,only,only,ai,C,0.87,block1,51,5
73,23217,cheat,MC2,MC,ai,NonProj,0,block1,51,6
73,15243,kids,stupid,stupid,ai,C,0.98,block1,51,7
73,5771,ballet,NomApp,NomApp,ai,B,1,block1,51,8
73,6474,boyfriend,MC1,MC,ai,NonProj,0,block1,51,9
73,20369,nails,MC3,MC,ai,NonProj,0,block1,51,10
73,3773,veggie,MC5,MC,ai,NonProj,0,block1,51,11
73,8928,pizza,discover,discover,ai,C,1,block1,51,12
73,5608,alcatraz,NRRC,NRRC,ai,B,1,block1,51,13
73,5807,soccer,annoyed,annoyed,ai,C,1,block1,51,14
73,6368,bmw,know,know,ai,C,1,block1,51,15
73,8198,play,stop,stop,projective,C,1,block2,51,16
73,4352,ballet,NomApp,NomApp,projective,B,1,block2,51,17
73,4523,hat,possNP,possNP,projective,B,1,block2,51,18
73,5533,veggie,MC5,MC,projective,NonProj,0,block2,51,19
73,10624,muffins,only,only,projective,C,0.87,block2,51,20
73,6016,kids,stupid,stupid,projective,C,1,block2,51,21
73,8496,bmw,know,know,projective,C,1,block2,51,22
73,5863,cupcakes,MC6,MC,projective,NonProj,0,block2,51,23
73,4808,cheat,MC2,MC,projective,NonProj,0,block2,51,24
73,5512,nails,MC3,MC,projective,NonProj,0,block2,51,25
73,4224,boyfriend,MC1,MC,projective,NonProj,0,block2,51,26
73,3527,stuntman,MC4,MC,projective,NonProj,0,block2,51,27
73,6144,alcatraz,NRRC,NRRC,projective,B,1,block2,51,28
73,4519,soccer,annoyed,annoyed,projective,C,1,block2,51,29
73,5352,pizza,discover,discover,projective,C,1,block2,51,30
74,4007,ballet,MC4,MC,projective,NonProj,0.04,block1,30,1
74,4039,aunt,MC1,MC,projective,NonProj,0.03,block1,30,2
74,4166,soccer,discover,discover,projective,C,0.98,block1,30,3
74,3934,alcatraz,MC3,MC,projective,NonProj,0.01,block1,30,4
74,3487,stuntman,MC6,MC,projective,NonProj,0.03,block1,30,5
74,6574,play,stop,stop,projective,C,0.97,block1,30,6
74,8503,nails,stupid,stupid,projective,C,0.96,block1,30,7
74,4407,veggie,NRRC,NRRC,projective,B,0.95,block1,30,8
74,5032,hat,know,know,projective,C,0.94,block1,30,9
74,4096,boyfriend,possNP,possNP,projective,B,0.95,block1,30,10
74,4999,olives,annoyed,annoyed,projective,C,0.96,block1,30,11
74,6475,bmw,NomApp,NomApp,projective,B,0.98,block1,30,12
74,4145,cupcakes,MC5,MC,projective,NonProj,0.02,block1,30,13
74,3451,pizza,only,only,projective,C,0.96,block1,30,14
74,4014,muffins,MC2,MC,projective,NonProj,0.02,block1,30,15
74,6147,nails,stupid,stupid,ai,C,0.97,block2,30,16
74,3599,cupcakes,MC5,MC,ai,NonProj,0.04,block2,30,17
74,10221,muffins,MC2,MC,ai,NonProj,0.03,block2,30,18
74,3848,bmw,NomApp,NomApp,ai,B,0.95,block2,30,19
74,3687,stuntman,MC6,MC,ai,NonProj,0.04,block2,30,20
74,6096,play,stop,stop,ai,C,0.96,block2,30,21
74,5814,hat,know,know,ai,C,0.95,block2,30,22
74,4168,olives,annoyed,annoyed,ai,C,1,block2,30,23
74,3871,veggie,NRRC,NRRC,ai,B,0.97,block2,30,24
74,10287,alcatraz,MC3,MC,ai,NonProj,0.0600000000000001,block2,30,25
74,11103,pizza,only,only,ai,C,0.98,block2,30,26
74,4033,ballet,MC4,MC,ai,NonProj,0.05,block2,30,27
74,3877,boyfriend,possNP,possNP,ai,B,1,block2,30,28
74,3632,soccer,discover,discover,ai,C,0.98,block2,30,29
74,3336,aunt,MC1,MC,ai,NonProj,0.03,block2,30,30
76,7083,pizza,only,only,projective,C,0.01,block1,60,1
76,5568,nails,stop,stop,projective,C,0.98,block1,60,2
76,5126,cupcakes,know,know,projective,C,0.98,block1,60,3
76,4287,cheat,stupid,stupid,projective,C,0.98,block1,60,4
76,4091,hat,annoyed,annoyed,projective,C,0.96,block1,60,5
76,7546,veggie,NomApp,NomApp,projective,B,0.98,block1,60,6
76,4424,olives,MC5,MC,projective,NonProj,0.02,block1,60,7
76,3881,bmw,possNP,possNP,projective,B,0.99,block1,60,8
76,6208,muffins,MC1,MC,projective,NonProj,0.03,block1,60,9
76,5848,kids,MC2,MC,projective,NonProj,0.01,block1,60,10
76,9947,play,discover,discover,projective,C,0.99,block1,60,11
76,4839,stuntman,MC6,MC,projective,NonProj,0.02,block1,60,12
76,5631,alcatraz,NRRC,NRRC,projective,B,0.98,block1,60,13
76,4899,soccer,MC4,MC,projective,NonProj,0.02,block1,60,14
76,7325,aunt,MC3,MC,projective,NonProj,0.03,block1,60,15
76,9227,play,discover,discover,ai,C,0.03,block2,60,16
76,7847,cupcakes,know,know,ai,C,1,block2,60,17
76,5587,veggie,NomApp,NomApp,ai,B,0.99,block2,60,18
76,9739,hat,annoyed,annoyed,ai,C,0.98,block2,60,19
76,5775,stuntman,MC6,MC,ai,NonProj,0.02,block2,60,20
76,5332,kids,MC2,MC,ai,NonProj,0.02,block2,60,21
76,5367,bmw,possNP,possNP,ai,B,0.99,block2,60,22
76,7766,nails,stop,stop,ai,C,0.99,block2,60,23
76,6012,muffins,MC1,MC,ai,NonProj,0.02,block2,60,24
76,4811,olives,MC5,MC,ai,NonProj,0.03,block2,60,25
76,7280,cheat,stupid,stupid,ai,C,0.97,block2,60,26
76,4916,soccer,MC4,MC,ai,NonProj,0.02,block2,60,27
76,6161,aunt,MC3,MC,ai,NonProj,0.02,block2,60,28
76,5304,alcatraz,NRRC,NRRC,ai,B,0.98,block2,60,29
76,6395,pizza,only,only,ai,C,0.99,block2,60,30
78,5447,stuntman,NomApp,NomApp,ai,B,0.98,block1,38,1
78,3495,cupcakes,MC6,MC,ai,NonProj,0.01,block1,38,2
78,16494,alcatraz,discover,discover,ai,C,0.98,block1,38,3
78,5255,boyfriend,MC5,MC,ai,NonProj,0.02,block1,38,4
78,9567,soccer,NRRC,NRRC,ai,B,0.98,block1,38,5
78,10289,bmw,annoyed,annoyed,ai,C,0.97,block1,38,6
78,7503,ballet,stop,stop,ai,C,1,block1,38,7
78,11225,kids,only,only,ai,C,1,block1,38,8
78,47816,veggie,MC1,MC,ai,NonProj,0,block1,38,9
78,10903,nails,stupid,stupid,ai,C,1,block1,38,10
78,7073,aunt,possNP,possNP,ai,B,1,block1,38,11
78,5511,pizza,MC3,MC,ai,NonProj,0,block1,38,12
78,4912,muffins,MC2,MC,ai,NonProj,0,block1,38,13
78,5480,olives,MC4,MC,ai,NonProj,0,block1,38,14
78,8032,cheat,know,know,ai,C,1,block1,38,15
78,25252,alcatraz,discover,discover,projective,C,0.55,block2,38,16
78,6736,veggie,MC1,MC,projective,NonProj,0,block2,38,17
78,3897,olives,MC4,MC,projective,NonProj,0,block2,38,18
78,5160,nails,stupid,stupid,projective,C,0.85,block2,38,19
78,3360,pizza,MC3,MC,projective,NonProj,0,block2,38,20
78,3512,kids,only,only,projective,C,0,block2,38,21
78,4448,cupcakes,MC6,MC,projective,NonProj,0,block2,38,22
78,4040,cheat,know,know,projective,C,0,block2,38,23
78,4928,ballet,stop,stop,projective,C,0.83,block2,38,24
78,3520,muffins,MC2,MC,projective,NonProj,0,block2,38,25
78,11071,soccer,NRRC,NRRC,projective,B,1,block2,38,26
78,5568,aunt,possNP,possNP,projective,B,1,block2,38,27
78,26720,boyfriend,MC5,MC,projective,NonProj,0,block2,38,28
78,9407,bmw,annoyed,annoyed,projective,C,1,block2,38,29
78,3473,stuntman,NomApp,NomApp,projective,B,1,block2,38,30
79,7178,boyfriend,NRRC,NRRC,ai,B,1,block1,24,1
79,6582,pizza,discover,discover,ai,C,1,block1,24,2
79,4220,olives,MC5,MC,ai,NonProj,0,block1,24,3
79,3662,bmw,possNP,possNP,ai,B,1,block1,24,4
79,4263,stuntman,NomApp,NomApp,ai,B,1,block1,24,5
79,5105,aunt,MC6,MC,ai,NonProj,0,block1,24,6
79,3805,alcatraz,MC2,MC,ai,NonProj,0,block1,24,7
79,9565,kids,only,only,ai,C,0.81,block1,24,8
79,10504,ballet,MC3,MC,ai,NonProj,0,block1,24,9
79,4703,play,MC4,MC,ai,NonProj,0,block1,24,10
79,5930,hat,annoyed,annoyed,ai,C,1,block1,24,11
79,5394,cupcakes,know,know,ai,C,1,block1,24,12
79,4136,nails,stop,stop,ai,C,1,block1,24,13
79,4460,muffins,MC1,MC,ai,NonProj,0,block1,24,14
79,3966,cheat,stupid,stupid,ai,C,1,block1,24,15
