workerid,rt,content,trigger,short_trigger,trigger_class,response,block,slide_number_in_experiment,age,trial
1,6757,chili,MC2,MC,NonProj,0,block1,3,27,1
1,8129,ditch,is_annoyed,is_annoyed,C,1,block1,4,27,2
1,11811,pool,is_aware,is_aware,C,1,block1,5,27,3
1,3325,tea,MC8,MC,NonProj,0,block1,6,27,4
1,3125,bmw,MC5,MC,NonProj,0,block1,7,27,5
1,3474,damp,discovered,discovered,C,1,block1,8,27,6
1,2134,nails,MC4,MC,NonProj,0,block1,9,27,7
1,2238,frisbee,is_amused,is_amused,C,1,block1,10,27,8
1,3018,horse,confessed,confessed,C,1,block1,11,27,9
1,2155,poodle,MC1,MC,NonProj,0,block1,12,27,10
1,3927,yoga,MC7,MC,NonProj,0,block1,13,27,11
1,3902,purple,saw,saw,C,1,block1,14,27,12
1,1694,dancing,revealed,revealed,C,1,block1,15,27,13
1,5682,picture,found_out,found_out,C,0.99,block1,16,27,14
1,2605,swing,established,established,C,1,block1,17,27,15
1,2321,cupcakes,noticed,noticed,C,1,block1,18,27,16
1,2303,poem,realize,realize,C,1,block1,19,27,17
1,1619,hat,MC3,MC,NonProj,0,block1,20,27,18
1,1423,zoo,MC6,MC,NonProj,0,block1,21,27,19
1,2431,garage,learned,learned,C,1,block1,22,27,20
2,6979,yoga,MC3,MC,NonProj,0.01,block1,3,41,1
2,6140,chili,discovered,discovered,C,0.5,block1,4,41,2
2,4711,hat,established,established,C,0.67,block1,5,41,3
2,4286,garage,MC1,MC,NonProj,0.02,block1,6,41,4
2,8111,bmw,learned,learned,C,0.51,block1,7,41,5
2,5101,purple,is_annoyed,is_annoyed,C,0.78,block1,8,41,6
2,3797,poodle,MC7,MC,NonProj,0.02,block1,9,41,7
2,5384,poem,confessed,confessed,C,0.47,block1,10,41,8
2,3380,zoo,noticed,noticed,C,0.49,block1,11,41,9
2,4260,cupcakes,realize,realize,C,0.51,block1,12,41,10
2,3952,horse,MC8,MC,NonProj,0.02,block1,13,41,11
2,3744,tea,is_aware,is_aware,C,0.5,block1,14,41,12
2,3320,frisbee,saw,saw,C,0.48,block1,15,41,13
2,3778,picture,MC2,MC,NonProj,0.01,block1,16,41,14
2,4468,pool,MC4,MC,NonProj,0.02,block1,17,41,15
2,3935,damp,MC5,MC,NonProj,0.01,block1,18,41,16
2,3028,dancing,is_amused,is_amused,C,0.55,block1,19,41,17
2,4405,ditch,found_out,found_out,C,0.51,block1,20,41,18
2,3228,nails,revealed,revealed,C,0.5,block1,21,41,19
2,4595,swing,MC6,MC,NonProj,0.02,block1,22,41,20
3,9541,yoga,saw,saw,C,0.03,block1,3,24,1
3,5509,bmw,MC5,MC,NonProj,0.03,block1,4,24,2
3,4915,poem,discovered,discovered,C,0.0600000000000001,block1,5,24,3
3,5728,damp,is_amused,is_amused,C,0.45,block1,6,24,4
3,6532,chili,learned,learned,C,0.55,block1,7,24,5
3,3220,hat,MC6,MC,NonProj,0.08,block1,8,24,6
3,4613,dancing,MC4,MC,NonProj,0.03,block1,9,24,7
3,5594,nails,noticed,noticed,C,0.31,block1,10,24,8
3,7719,purple,revealed,revealed,C,0.26,block1,11,24,9
3,3938,zoo,MC3,MC,NonProj,0.02,block1,12,24,10
3,5390,horse,MC1,MC,NonProj,0.05,block1,13,24,11
3,5485,cupcakes,realize,realize,C,0.6,block1,14,24,12
3,3670,poodle,MC2,MC,NonProj,0.01,block1,15,24,13
3,3885,ditch,is_aware,is_aware,C,0.65,block1,16,24,14
3,4699,frisbee,MC7,MC,NonProj,0.02,block1,17,24,15
3,3913,swing,established,established,C,0.79,block1,18,24,16
3,4968,garage,confessed,confessed,C,0.46,block1,19,24,17
3,4630,picture,is_annoyed,is_annoyed,C,0.51,block1,20,24,18
3,4716,pool,MC8,MC,NonProj,0.02,block1,21,24,19
3,3362,tea,found_out,found_out,C,0.79,block1,22,24,20
4,5734,pool,MC4,MC,NonProj,0,block1,3,28,1
4,4268,swing,confessed,confessed,C,0,block1,4,28,2
4,3077,cupcakes,MC1,MC,NonProj,0,block1,5,28,3
4,2683,horse,noticed,noticed,C,0,block1,6,28,4
4,2741,garage,MC2,MC,NonProj,0,block1,7,28,5
4,3826,chili,saw,saw,C,0,block1,8,28,6
4,3012,damp,MC8,MC,NonProj,0,block1,9,28,7
4,3629,dancing,found_out,found_out,C,0,block1,10,28,8
4,2465,tea,MC5,MC,NonProj,0,block1,11,28,9
4,10594,hat,realize,realize,C,1,block1,12,28,10
4,10515,bmw,revealed,revealed,C,1,block1,13,28,11
4,4599,frisbee,MC7,MC,NonProj,0,block1,14,28,12
4,5930,nails,discovered,discovered,C,1,block1,15,28,13
4,3784,poem,MC6,MC,NonProj,0,block1,16,28,14
4,4867,poodle,is_aware,is_aware,C,1,block1,17,28,15
4,3924,zoo,is_amused,is_amused,C,1,block1,18,28,16
4,4802,picture,established,established,C,0.89,block1,19,28,17
4,3378,ditch,is_annoyed,is_annoyed,C,1,block1,20,28,18
4,4495,purple,learned,learned,C,1,block1,21,28,19
4,5192,yoga,MC3,MC,NonProj,0,block1,22,28,20
7,10855,purple,confessed,confessed,C,1,block1,3,39,1
7,7159,pool,MC3,MC,NonProj,0.01,block1,4,39,2
7,4573,tea,MC5,MC,NonProj,0.02,block1,5,39,3
7,6599,picture,found_out,found_out,C,0.01,block1,6,39,4
7,5000,poodle,realize,realize,C,0.02,block1,7,39,5
7,15824,hat,saw,saw,C,1,block1,8,39,6
7,8030,swing,is_amused,is_amused,C,0.79,block1,9,39,7
7,5953,damp,noticed,noticed,C,0,block1,10,39,8
7,5477,garage,MC1,MC,NonProj,0.82,block1,11,39,9
7,5799,bmw,MC7,MC,NonProj,0.08,block1,12,39,10
7,4103,frisbee,MC8,MC,NonProj,0.04,block1,13,39,11
7,5247,horse,revealed,revealed,C,0.91,block1,14,39,12
7,6848,poem,is_annoyed,is_annoyed,C,0.8,block1,15,39,13
7,3479,chili,learned,learned,C,0.0600000000000001,block1,16,39,14
7,5609,cupcakes,MC4,MC,NonProj,0.07,block1,17,39,15
7,2735,dancing,MC2,MC,NonProj,0.01,block1,18,39,16
7,5639,nails,is_aware,is_aware,C,0.98,block1,19,39,17
7,4455,yoga,established,established,C,0.63,block1,20,39,18
7,7624,ditch,discovered,discovered,C,0.89,block1,21,39,19
7,2708,zoo,MC6,MC,NonProj,0,block1,22,39,20
8,14793,tea,found_out,found_out,C,0.02,block1,3,22,1
8,9240,chili,revealed,revealed,C,0,block1,4,22,2
8,7537,hat,MC8,MC,NonProj,0.01,block1,5,22,3
8,14164,pool,established,established,C,0.01,block1,6,22,4
8,7861,poodle,is_amused,is_amused,C,0.99,block1,7,22,5
8,6378,purple,saw,saw,C,0.02,block1,8,22,6
8,5866,horse,realize,realize,C,0,block1,9,22,7
8,5300,garage,confessed,confessed,C,0.01,block1,10,22,8
8,5423,damp,noticed,noticed,C,0.01,block1,11,22,9
8,4130,nails,MC7,MC,NonProj,0.02,block1,12,22,10
8,4380,ditch,MC4,MC,NonProj,0.02,block1,13,22,11
8,6379,swing,is_aware,is_aware,C,0.02,block1,14,22,12
8,7598,zoo,MC5,MC,NonProj,0.01,block1,15,22,13
8,4090,frisbee,learned,learned,C,0.02,block1,16,22,14
8,3863,dancing,MC1,MC,NonProj,0,block1,17,22,15
8,4480,bmw,discovered,discovered,C,0.02,block1,18,22,16
8,7714,poem,is_annoyed,is_annoyed,C,0.98,block1,19,22,17
8,5420,picture,MC2,MC,NonProj,0.02,block1,20,22,18
8,8411,yoga,MC3,MC,NonProj,0.01,block1,21,22,19
8,6223,cupcakes,MC6,MC,NonProj,0.02,block1,22,22,20
9,9151,swing,revealed,revealed,C,0.65,block1,3,33,1
9,7028,ditch,noticed,noticed,C,0.53,block1,4,33,2
9,4211,poem,MC6,MC,NonProj,0.0600000000000001,block1,5,33,3
9,5574,cupcakes,is_amused,is_amused,C,0.39,block1,6,33,4
9,3284,garage,MC2,MC,NonProj,0.03,block1,7,33,5
9,2678,zoo,MC8,MC,NonProj,0.03,block1,8,33,6
9,3056,tea,MC4,MC,NonProj,0.01,block1,9,33,7
9,4913,purple,realize,realize,C,0.49,block1,10,33,8
9,7357,damp,discovered,discovered,C,0.69,block1,11,33,9
9,4482,pool,found_out,found_out,C,0.68,block1,12,33,10
9,5530,picture,confessed,confessed,C,0.71,block1,13,33,11
9,2867,poodle,MC1,MC,NonProj,0.02,block1,14,33,12
9,4416,nails,is_annoyed,is_annoyed,C,0.76,block1,15,33,13
9,4042,yoga,MC7,MC,NonProj,0.04,block1,16,33,14
9,3780,horse,learned,learned,C,0.51,block1,17,33,15
9,4164,bmw,established,established,C,0.25,block1,18,33,16
9,3683,dancing,MC3,MC,NonProj,0.03,block1,19,33,17
9,3043,frisbee,MC5,MC,NonProj,0.03,block1,20,33,18
9,4284,chili,saw,saw,C,0.7,block1,21,33,19
9,3740,hat,is_aware,is_aware,C,0.82,block1,22,33,20
10,12419,pool,realize,realize,C,0.04,block1,3,24,1
10,13961,poem,noticed,noticed,C,0.05,block1,4,24,2
10,8448,garage,confessed,confessed,C,0.84,block1,5,24,3
10,9131,picture,saw,saw,C,0.88,block1,6,24,4
10,9117,frisbee,is_annoyed,is_annoyed,C,0.91,block1,7,24,5
10,4372,purple,MC3,MC,NonProj,0.04,block1,8,24,6
10,4163,hat,MC2,MC,NonProj,0.03,block1,9,24,7
10,7834,zoo,established,established,C,0.48,block1,10,24,8
10,9241,yoga,MC7,MC,NonProj,0.02,block1,11,24,9
10,6061,damp,MC1,MC,NonProj,0.01,block1,12,24,10
10,8655,swing,discovered,discovered,C,0.82,block1,13,24,11
10,9461,ditch,is_amused,is_amused,C,0.92,block1,14,24,12
10,4960,chili,MC8,MC,NonProj,0.01,block1,15,24,13
10,10833,cupcakes,learned,learned,C,0.85,block1,16,24,14
10,5227,bmw,is_aware,is_aware,C,0.9,block1,17,24,15
10,5802,tea,MC6,MC,NonProj,0.04,block1,18,24,16
10,5350,poodle,revealed,revealed,C,0.94,block1,19,24,17
10,5368,dancing,MC5,MC,NonProj,0.01,block1,20,24,18
10,5109,nails,found_out,found_out,C,0.91,block1,21,24,19
10,5663,horse,MC4,MC,NonProj,0.02,block1,22,24,20
11,9853,cupcakes,MC6,MC,NonProj,0,block1,3,32,1
11,18005,swing,discovered,discovered,C,0.03,block1,4,32,2
11,13653,zoo,learned,learned,C,0.02,block1,5,32,3
11,12047,garage,is_amused,is_amused,C,0.95,block1,6,32,4
11,4832,picture,MC8,MC,NonProj,0.04,block1,7,32,5
11,20030,hat,established,established,C,0.0600000000000001,block1,8,32,6
11,8385,horse,saw,saw,C,0.85,block1,9,32,7
11,11270,purple,noticed,noticed,C,0.32,block1,10,32,8
11,7352,pool,is_aware,is_aware,C,0.46,block1,11,32,9
11,8944,tea,confessed,confessed,C,0.75,block1,12,32,10
11,12680,poem,is_annoyed,is_annoyed,C,0.8,block1,13,32,11
11,29761,nails,MC7,MC,NonProj,0,block1,14,32,12
11,5913,chili,MC1,MC,NonProj,0.01,block1,15,32,13
11,13372,ditch,MC2,MC,NonProj,0.03,block1,16,32,14
11,7314,damp,MC3,MC,NonProj,0.01,block1,17,32,15
11,13100,frisbee,MC4,MC,NonProj,0.02,block1,18,32,16
11,5626,bmw,MC5,MC,NonProj,0.02,block1,19,32,17
11,16407,yoga,found_out,found_out,C,0.6,block1,20,32,18
11,6134,dancing,revealed,revealed,C,0.65,block1,21,32,19
11,8121,poodle,realize,realize,C,0.44,block1,22,32,20
12,16159,frisbee,MC2,MC,NonProj,0.04,block1,3,32,1
12,13023,yoga,MC1,MC,NonProj,0.0600000000000001,block1,4,32,2
12,8393,picture,MC5,MC,NonProj,0.24,block1,5,32,3
12,11325,chili,is_amused,is_amused,C,0.92,block1,6,32,4
12,7976,tea,MC7,MC,NonProj,0.14,block1,7,32,5
12,12612,cupcakes,MC6,MC,NonProj,0.1,block1,8,32,6
12,6685,poodle,MC8,MC,NonProj,0.11,block1,9,32,7
12,16662,hat,revealed,revealed,C,0.03,block1,10,32,8
12,8847,pool,established,established,C,0.05,block1,11,32,9
12,9783,nails,is_annoyed,is_annoyed,C,0.89,block1,12,32,10
12,6379,poem,MC4,MC,NonProj,0.01,block1,13,32,11
12,11715,damp,realize,realize,C,0.0600000000000001,block1,14,32,12
12,12696,zoo,is_aware,is_aware,C,0.95,block1,15,32,13
12,12672,swing,noticed,noticed,C,0.88,block1,16,32,14
12,9808,dancing,found_out,found_out,C,0.9,block1,17,32,15
12,8920,purple,saw,saw,C,0.94,block1,18,32,16
12,8055,ditch,learned,learned,C,0.93,block1,19,32,17
12,11955,bmw,confessed,confessed,C,0.96,block1,20,32,18
12,10820,horse,discovered,discovered,C,0.95,block1,21,32,19
12,6287,garage,MC3,MC,NonProj,0.08,block1,22,32,20
13,9532,pool,MC1,MC,NonProj,0,block1,3,20,1
13,6225,hat,established,established,C,1,block1,4,20,2
13,3370,picture,MC7,MC,NonProj,0,block1,5,20,3
13,3120,bmw,MC8,MC,NonProj,0,block1,6,20,4
13,5398,horse,noticed,noticed,C,1,block1,7,20,5
13,4526,swing,MC4,MC,NonProj,0,block1,8,20,6
13,4069,garage,confessed,confessed,C,1,block1,9,20,7
13,5931,nails,revealed,revealed,C,1,block1,10,20,8
13,5210,dancing,is_amused,is_amused,C,1,block1,11,20,9
13,5441,zoo,saw,saw,C,1,block1,12,20,10
13,5506,chili,realize,realize,C,0.88,block1,13,20,11
13,5224,frisbee,MC3,MC,NonProj,0,block1,14,20,12
13,4510,tea,MC2,MC,NonProj,0,block1,15,20,13
13,2252,poodle,MC5,MC,NonProj,0,block1,16,20,14
13,4534,cupcakes,learned,learned,C,1,block1,17,20,15
13,4139,poem,is_annoyed,is_annoyed,C,1,block1,18,20,16
13,3447,ditch,MC6,MC,NonProj,0,block1,19,20,17
13,4099,purple,found_out,found_out,C,0.89,block1,20,20,18
13,6403,yoga,is_aware,is_aware,C,0.89,block1,21,20,19
13,5451,damp,discovered,discovered,C,1,block1,22,20,20
14,15086,swing,MC2,MC,NonProj,0,block1,3,29,1
14,5959,poodle,MC7,MC,NonProj,0.03,block1,4,29,2
14,6852,pool,MC1,MC,NonProj,0.01,block1,5,29,3
14,11253,frisbee,found_out,found_out,C,0.9,block1,6,29,4
14,10346,cupcakes,is_aware,is_aware,C,0.87,block1,7,29,5
14,7439,ditch,realize,realize,C,0.88,block1,8,29,6
14,7134,hat,is_amused,is_amused,C,0.86,block1,9,29,7
14,9239,picture,confessed,confessed,C,0.88,block1,10,29,8
14,6161,purple,discovered,discovered,C,0.83,block1,11,29,9
14,5831,yoga,is_annoyed,is_annoyed,C,0.9,block1,12,29,10
14,9010,bmw,MC4,MC,NonProj,0.02,block1,13,29,11
14,11217,damp,revealed,revealed,C,0.87,block1,14,29,12
14,7801,garage,established,established,C,0.65,block1,15,29,13
14,6630,chili,learned,learned,C,0.79,block1,16,29,14
14,8244,dancing,noticed,noticed,C,0.79,block1,17,29,15
14,7249,horse,MC3,MC,NonProj,0.02,block1,18,29,16
14,3544,nails,MC5,MC,NonProj,0.03,block1,19,29,17
14,7327,poem,saw,saw,C,0.84,block1,20,29,18
14,3797,zoo,MC6,MC,NonProj,0.05,block1,21,29,19
14,29266,tea,MC8,MC,NonProj,0,block1,22,29,20
15,7484,damp,MC5,MC,NonProj,0,block1,3,26,1
15,4390,swing,MC4,MC,NonProj,0,block1,4,26,2
15,5406,frisbee,is_amused,is_amused,C,0.92,block1,5,26,3
15,3526,nails,MC1,MC,NonProj,0,block1,6,26,4
15,4724,poodle,revealed,revealed,C,0.88,block1,7,26,5
15,4546,yoga,saw,saw,C,0.6,block1,8,26,6
15,3198,zoo,MC2,MC,NonProj,0,block1,9,26,7
15,4180,poem,found_out,found_out,C,0.59,block1,10,26,8
15,4331,horse,established,established,C,0.87,block1,11,26,9
15,3857,chili,MC6,MC,NonProj,0,block1,12,26,10
15,3195,cupcakes,MC7,MC,NonProj,0,block1,13,26,11
15,3848,hat,MC3,MC,NonProj,0,block1,14,26,12
15,3266,garage,discovered,discovered,C,1,block1,15,26,13
15,2703,purple,MC8,MC,NonProj,0,block1,16,26,14
15,4039,picture,is_aware,is_aware,C,0.78,block1,17,26,15
15,3345,pool,noticed,noticed,C,0.86,block1,18,26,16
15,3467,dancing,learned,learned,C,0.95,block1,19,26,17
15,3716,bmw,confessed,confessed,C,0.87,block1,20,26,18
15,2784,ditch,is_annoyed,is_annoyed,C,0.94,block1,21,26,19
15,3455,tea,realize,realize,C,1,block1,22,26,20
16,9656,dancing,MC6,MC,NonProj,0,block1,3,20,1
16,24633,pool,learned,learned,C,0.64,block1,4,20,2
16,16618,picture,noticed,noticed,C,0.77,block1,5,20,3
16,13073,purple,confessed,confessed,C,0.81,block1,6,20,4
16,13811,chili,is_aware,is_aware,C,0.8,block1,7,20,5
16,12249,damp,MC3,MC,NonProj,0.02,block1,8,20,6
16,6581,tea,found_out,found_out,C,0.86,block1,9,20,7
16,5479,nails,MC2,MC,NonProj,0.04,block1,10,20,8
16,11286,ditch,is_annoyed,is_annoyed,C,0.8,block1,11,20,9
16,6099,poem,MC4,MC,NonProj,0.02,block1,12,20,10
16,12320,poodle,realize,realize,C,0.79,block1,13,20,11
16,13058,hat,revealed,revealed,C,0.75,block1,14,20,12
16,5977,garage,saw,saw,C,0.82,block1,15,20,13
16,4240,horse,MC7,MC,NonProj,0,block1,16,20,14
16,5004,cupcakes,MC1,MC,NonProj,0.0600000000000001,block1,17,20,15
16,5175,frisbee,MC8,MC,NonProj,0.04,block1,18,20,16
16,8651,yoga,established,established,C,0.78,block1,19,20,17
16,6365,zoo,discovered,discovered,C,0.77,block1,20,20,18
16,9549,bmw,is_amused,is_amused,C,0.7,block1,21,20,19
16,5611,swing,MC5,MC,NonProj,0.02,block1,22,20,20
18,18564,picture,MC1,MC,NonProj,0.02,block1,3,29,1
18,8566,zoo,is_amused,is_amused,C,0.98,block1,4,29,2
18,11667,hat,confessed,confessed,C,0.77,block1,5,29,3
18,7399,garage,saw,saw,C,0.76,block1,6,29,4
18,7199,nails,MC6,MC,NonProj,0.02,block1,7,29,5
18,13782,poodle,MC5,MC,NonProj,0.01,block1,8,29,6
18,7859,ditch,discovered,discovered,C,0.7,block1,9,29,7
18,11940,swing,noticed,noticed,C,0.66,block1,10,29,8
18,8599,tea,MC3,MC,NonProj,0,block1,11,29,9
18,7917,poem,MC8,MC,NonProj,0.02,block1,12,29,10
18,9233,frisbee,learned,learned,C,0.58,block1,13,29,11
18,6217,dancing,established,established,C,0.81,block1,14,29,12
18,9299,pool,is_aware,is_aware,C,0.74,block1,15,29,13
18,7051,cupcakes,realize,realize,C,0.82,block1,16,29,14
18,11298,purple,found_out,found_out,C,0.44,block1,17,29,15
18,5750,horse,MC4,MC,NonProj,0.03,block1,18,29,16
18,9459,bmw,revealed,revealed,C,0.36,block1,19,29,17
18,6590,damp,MC7,MC,NonProj,0.02,block1,20,29,18
18,5466,chili,MC2,MC,NonProj,0.02,block1,21,29,19
18,8434,yoga,is_annoyed,is_annoyed,C,0.98,block1,22,29,20
19,12879,poem,learned,learned,C,1,block1,3,34,1
19,11615,yoga,established,established,C,0,block1,4,34,2
19,7320,chili,revealed,revealed,C,0,block1,5,34,3
19,12695,swing,found_out,found_out,C,1,block1,6,34,4
19,4808,poodle,MC5,MC,NonProj,0,block1,7,34,5
19,7456,bmw,is_annoyed,is_annoyed,C,1,block1,8,34,6
19,34545,horse,is_aware,is_aware,C,1,block1,9,34,7
19,6056,dancing,MC7,MC,NonProj,0,block1,10,34,8
19,8912,hat,saw,saw,C,1,block1,11,34,9
19,6552,cupcakes,is_amused,is_amused,C,1,block1,12,34,10
19,10896,garage,confessed,confessed,C,1,block1,13,34,11
19,8432,damp,realize,realize,C,1,block1,14,34,12
19,4536,pool,MC6,MC,NonProj,0,block1,15,34,13
19,6631,ditch,MC8,MC,NonProj,0,block1,16,34,14
19,4552,tea,MC4,MC,NonProj,0,block1,17,34,15
19,3368,zoo,noticed,noticed,C,0,block1,18,34,16
19,7136,picture,discovered,discovered,C,1,block1,19,34,17
19,4785,nails,MC3,MC,NonProj,0,block1,20,34,18
19,4198,frisbee,MC2,MC,NonProj,0,block1,21,34,19
19,3832,purple,MC1,MC,NonProj,0,block1,22,34,20
20,13533,tea,is_annoyed,is_annoyed,C,1,block1,3,36,1
20,9623,swing,MC3,MC,NonProj,0,block1,4,36,2
20,4064,horse,MC6,MC,NonProj,0.02,block1,5,36,3
20,9711,pool,established,established,C,1,block1,6,36,4
20,20159,frisbee,noticed,noticed,C,0.98,block1,7,36,5
20,4833,hat,MC4,MC,NonProj,0,block1,8,36,6
20,5224,poodle,MC2,MC,NonProj,0.01,block1,9,36,7
20,6391,dancing,learned,learned,C,1,block1,10,36,8
20,4681,garage,MC5,MC,NonProj,0,block1,11,36,9
20,6496,zoo,MC1,MC,NonProj,0,block1,12,36,10
20,6647,bmw,saw,saw,C,1,block1,13,36,11
20,6240,picture,is_aware,is_aware,C,0,block1,14,36,12
20,7336,nails,MC7,MC,NonProj,0.01,block1,15,36,13
20,5182,ditch,found_out,found_out,C,1,block1,16,36,14
20,16767,purple,discovered,discovered,C,1,block1,17,36,15
20,8424,poem,MC8,MC,NonProj,0,block1,18,36,16
20,6479,cupcakes,is_amused,is_amused,C,0.99,block1,19,36,17
20,5439,chili,revealed,revealed,C,0.99,block1,20,36,18
20,8273,yoga,realize,realize,C,1,block1,21,36,19
20,11025,damp,confessed,confessed,C,0.99,block1,22,36,20
21,14068,swing,MC5,MC,NonProj,0.08,block1,3,21,1
21,8899,damp,is_annoyed,is_annoyed,C,0.95,block1,4,21,2
21,3842,zoo,MC1,MC,NonProj,0.0600000000000001,block1,5,21,3
21,5802,horse,learned,learned,C,0.96,block1,6,21,4
21,5070,nails,established,established,C,0.12,block1,7,21,5
21,4641,pool,MC7,MC,NonProj,0.11,block1,8,21,6
21,4218,purple,confessed,confessed,C,0.96,block1,9,21,7
21,4267,cupcakes,MC3,MC,NonProj,0.0600000000000001,block1,10,21,8
21,4602,ditch,MC6,MC,NonProj,0.05,block1,11,21,9
21,4505,chili,found_out,found_out,C,0.92,block1,12,21,10
21,4510,poodle,saw,saw,C,0.97,block1,13,21,11
21,6877,picture,is_amused,is_amused,C,0.91,block1,14,21,12
21,5767,yoga,is_aware,is_aware,C,0.88,block1,15,21,13
21,12951,frisbee,MC4,MC,NonProj,0.95,block1,16,21,14
21,4630,hat,MC8,MC,NonProj,0.11,block1,17,21,15
21,6239,tea,noticed,noticed,C,0.96,block1,18,21,16
21,9070,bmw,revealed,revealed,C,0.86,block1,19,21,17
21,4630,dancing,realize,realize,C,0.77,block1,20,21,18
21,6368,poem,discovered,discovered,C,0.98,block1,21,21,19
21,5510,garage,MC2,MC,NonProj,0.87,block1,22,21,20
22,10197,chili,MC5,MC,NonProj,0,block1,3,30,1
22,4984,swing,learned,learned,C,0,block1,4,30,2
22,2538,dancing,MC1,MC,NonProj,0,block1,5,30,3
22,3453,horse,MC6,MC,NonProj,0,block1,6,30,4
22,3584,zoo,MC3,MC,NonProj,0.01,block1,7,30,5
22,8374,poem,confessed,confessed,C,0.01,block1,8,30,6
22,8567,damp,is_annoyed,is_annoyed,C,0,block1,9,30,7
22,5579,picture,MC7,MC,NonProj,0,block1,10,30,8
22,189023,frisbee,discovered,discovered,C,0,block1,11,30,9
22,4834,purple,MC2,MC,NonProj,0,block1,12,30,10
22,4622,garage,saw,saw,C,0,block1,13,30,11
22,9670,nails,noticed,noticed,C,0,block1,14,30,12
22,6682,cupcakes,is_amused,is_amused,C,0,block1,15,30,13
22,5590,bmw,found_out,found_out,C,0,block1,16,30,14
22,3856,pool,MC8,MC,NonProj,0,block1,17,30,15
22,6238,ditch,is_aware,is_aware,C,0,block1,18,30,16
22,4579,poodle,realize,realize,C,0,block1,19,30,17
22,1576,yoga,revealed,revealed,C,0,block1,20,30,18
22,1701,hat,MC4,MC,NonProj,0,block1,21,30,19
22,7302,tea,established,established,C,0,block1,22,30,20
23,7426,zoo,MC4,MC,NonProj,0.03,block1,3,25,1
23,6603,bmw,MC6,MC,NonProj,0.08,block1,4,25,2
23,5623,tea,discovered,discovered,C,0.55,block1,5,25,3
23,4734,cupcakes,saw,saw,C,0.53,block1,6,25,4
23,4445,yoga,MC3,MC,NonProj,0.07,block1,7,25,5
23,4055,swing,revealed,revealed,C,0.52,block1,8,25,6
23,4098,frisbee,realize,realize,C,0.54,block1,9,25,7
23,3457,poodle,confessed,confessed,C,0.63,block1,10,25,8
23,3121,ditch,established,established,C,0.54,block1,11,25,9
23,3342,hat,MC2,MC,NonProj,0.54,block1,12,25,10
23,3170,nails,noticed,noticed,C,0.48,block1,13,25,11
23,2518,pool,found_out,found_out,C,0.51,block1,14,25,12
23,2480,poem,is_amused,is_amused,C,0.47,block1,15,25,13
23,4319,chili,MC1,MC,NonProj,0.12,block1,16,25,14
23,3002,picture,learned,learned,C,0.44,block1,17,25,15
23,3583,horse,MC7,MC,NonProj,0.1,block1,18,25,16
23,2181,dancing,is_aware,is_aware,C,0.65,block1,19,25,17
23,2187,garage,is_annoyed,is_annoyed,C,0.59,block1,20,25,18
23,2368,purple,MC5,MC,NonProj,0.58,block1,21,25,19
23,4590,damp,MC8,MC,NonProj,0.14,block1,22,25,20
24,25681,tea,is_aware,is_aware,C,0.97,block1,3,30,1
24,10990,zoo,MC3,MC,NonProj,0,block1,4,30,2
24,14280,frisbee,confessed,confessed,C,0.96,block1,5,30,3
24,13863,cupcakes,MC2,MC,NonProj,0.01,block1,6,30,4
24,9200,bmw,revealed,revealed,C,0.98,block1,7,30,5
24,11743,poem,MC1,MC,NonProj,0,block1,8,30,6
24,15392,nails,MC5,MC,NonProj,0,block1,9,30,7
24,5567,hat,noticed,noticed,C,1,block1,10,30,8
24,8439,purple,MC6,MC,NonProj,0,block1,11,30,9
24,7423,chili,realize,realize,C,1,block1,12,30,10
24,9024,pool,saw,saw,C,0.95,block1,13,30,11
24,7495,garage,MC4,MC,NonProj,0,block1,14,30,12
24,6703,dancing,found_out,found_out,C,1,block1,15,30,13
24,6351,ditch,MC8,MC,NonProj,0,block1,16,30,14
24,6712,yoga,discovered,discovered,C,1,block1,17,30,15
24,5511,swing,is_amused,is_amused,C,1,block1,18,30,16
24,6231,damp,MC7,MC,NonProj,0,block1,19,30,17
24,6471,poodle,learned,learned,C,1,block1,20,30,18
24,9735,picture,established,established,C,0.96,block1,21,30,19
24,5535,horse,is_annoyed,is_annoyed,C,1,block1,22,30,20
25,12333,zoo,realize,realize,C,0.96,block1,3,23,1
25,5315,tea,MC6,MC,NonProj,0.01,block1,4,23,2
25,4041,hat,MC1,MC,NonProj,0.01,block1,5,23,3
25,9076,ditch,established,established,C,0.97,block1,6,23,4
25,9266,cupcakes,MC3,MC,NonProj,0.02,block1,7,23,5
25,7376,bmw,discovered,discovered,C,0.97,block1,8,23,6
25,9352,chili,revealed,revealed,C,1,block1,9,23,7
25,6609,dancing,learned,learned,C,0.99,block1,10,23,8
25,4896,horse,MC4,MC,NonProj,0.02,block1,11,23,9
25,10741,damp,found_out,found_out,C,0.98,block1,12,23,10
25,19570,pool,is_amused,is_amused,C,0.99,block1,13,23,11
25,6550,frisbee,is_aware,is_aware,C,0.99,block1,14,23,12
25,3297,garage,noticed,noticed,C,0.97,block1,15,23,13
25,3080,purple,saw,saw,C,0.97,block1,16,23,14
25,3520,poodle,MC5,MC,NonProj,0.02,block1,17,23,15
25,3658,swing,confessed,confessed,C,0.99,block1,18,23,16
25,4042,yoga,MC2,MC,NonProj,0.01,block1,19,23,17
25,4719,picture,MC8,MC,NonProj,0.01,block1,20,23,18
25,3419,poem,is_annoyed,is_annoyed,C,0.98,block1,21,23,19
25,5123,nails,MC7,MC,NonProj,0.02,block1,22,23,20
26,24826,cupcakes,established,established,C,0.98,block1,3,39,1
26,10850,dancing,noticed,noticed,C,0.98,block1,4,39,2
26,6859,hat,MC4,MC,NonProj,0.02,block1,5,39,3
26,6582,garage,revealed,revealed,C,0.99,block1,6,39,4
26,6317,chili,MC3,MC,NonProj,0,block1,7,39,5
26,6915,purple,MC6,MC,NonProj,0.01,block1,8,39,6
26,10727,poem,realize,realize,C,0.98,block1,9,39,7
26,9387,bmw,is_amused,is_amused,C,0.98,block1,10,39,8
26,9873,ditch,confessed,confessed,C,0.97,block1,11,39,9
26,4507,yoga,MC8,MC,NonProj,0.02,block1,12,39,10
26,4764,tea,MC5,MC,NonProj,0.04,block1,13,39,11
26,7096,damp,found_out,found_out,C,0.97,block1,14,39,12
26,6639,picture,saw,saw,C,0.98,block1,15,39,13
26,3871,horse,MC1,MC,NonProj,0.03,block1,16,39,14
26,5433,swing,discovered,discovered,C,0.97,block1,17,39,15
26,4222,zoo,MC2,MC,NonProj,0.01,block1,18,39,16
26,3184,pool,MC7,MC,NonProj,0.02,block1,19,39,17
26,5447,nails,learned,learned,C,0.98,block1,20,39,18
26,7552,frisbee,is_annoyed,is_annoyed,C,0.99,block1,21,39,19
26,4944,poodle,is_aware,is_aware,C,0.97,block1,22,39,20
27,10893,horse,revealed,revealed,C,0.01,block1,3,34,1
27,8483,cupcakes,is_annoyed,is_annoyed,C,0.79,block1,4,34,2
27,5513,pool,MC4,MC,NonProj,0.08,block1,5,34,3
27,9837,chili,is_aware,is_aware,C,0.92,block1,6,34,4
27,8366,bmw,noticed,noticed,C,0.41,block1,7,34,5
27,4764,dancing,MC7,MC,NonProj,0.03,block1,8,34,6
27,4987,poodle,found_out,found_out,C,0.28,block1,9,34,7
27,6827,tea,MC6,MC,NonProj,0,block1,10,34,8
27,6035,damp,established,established,C,0.63,block1,11,34,9
27,5150,garage,learned,learned,C,0.47,block1,12,34,10
27,7332,poem,is_amused,is_amused,C,0.75,block1,13,34,11
27,7535,frisbee,saw,saw,C,0.28,block1,14,34,12
27,6084,yoga,confessed,confessed,C,0.64,block1,15,34,13
27,3149,hat,MC2,MC,NonProj,0,block1,16,34,14
27,4234,ditch,MC5,MC,NonProj,0,block1,17,34,15
27,8318,swing,discovered,discovered,C,0.66,block1,18,34,16
27,4614,nails,realize,realize,C,0.78,block1,19,34,17
27,11033,purple,MC8,MC,NonProj,0,block1,20,34,18
27,3233,zoo,MC1,MC,NonProj,0,block1,21,34,19
27,4547,picture,MC3,MC,NonProj,0,block1,22,34,20
28,8765,zoo,MC4,MC,NonProj,0,block1,3,23,1
28,15848,frisbee,learned,learned,C,0,block1,4,23,2
28,9044,yoga,MC3,MC,NonProj,0,block1,5,23,3
28,18785,nails,established,established,C,0.29,block1,6,23,4
28,6682,poem,revealed,revealed,C,0.32,block1,7,23,5
28,7215,damp,MC7,MC,NonProj,0,block1,8,23,6
28,4268,purple,MC1,MC,NonProj,0,block1,9,23,7
28,3824,poodle,MC6,MC,NonProj,0,block1,10,23,8
28,11716,horse,confessed,confessed,C,0.31,block1,11,23,9
28,10606,pool,MC2,MC,NonProj,0,block1,12,23,10
28,9702,bmw,is_amused,is_amused,C,0.33,block1,13,23,11
28,5421,picture,found_out,found_out,C,0.35,block1,14,23,12
28,6410,dancing,noticed,noticed,C,0.33,block1,15,23,13
28,3456,ditch,realize,realize,C,0.31,block1,16,23,14
28,5418,cupcakes,MC8,MC,NonProj,0,block1,17,23,15
28,12266,chili,is_aware,is_aware,C,0.31,block1,18,23,16
28,7475,hat,is_annoyed,is_annoyed,C,0.33,block1,19,23,17
28,3910,garage,discovered,discovered,C,0.36,block1,20,23,18
28,10100,tea,MC5,MC,NonProj,0,block1,21,23,19
28,9641,swing,saw,saw,C,0.36,block1,22,23,20
29,19227,nails,established,established,C,0.11,block1,3,43,1
29,13369,cupcakes,MC8,MC,NonProj,0.01,block1,4,43,2
29,10571,hat,is_annoyed,is_annoyed,C,0.99,block1,5,43,3
29,9429,dancing,discovered,discovered,C,0.05,block1,6,43,4
29,14564,damp,MC6,MC,NonProj,0,block1,7,43,5
29,8032,poodle,is_aware,is_aware,C,0.72,block1,8,43,6
29,10499,pool,MC3,MC,NonProj,0,block1,9,43,7
29,13704,tea,noticed,noticed,C,0.21,block1,10,43,8
29,4966,ditch,MC7,MC,NonProj,0,block1,11,43,9
29,10680,yoga,found_out,found_out,C,0.24,block1,12,43,10
29,9516,purple,confessed,confessed,C,0.08,block1,13,43,11
29,12116,picture,realize,realize,C,0.69,block1,14,43,12
29,6001,chili,MC4,MC,NonProj,0.03,block1,15,43,13
29,4935,zoo,MC1,MC,NonProj,0,block1,16,43,14
29,20431,swing,saw,saw,C,0.69,block1,17,43,15
29,6149,frisbee,MC2,MC,NonProj,0,block1,18,43,16
29,6806,bmw,is_amused,is_amused,C,0.77,block1,19,43,17
29,11910,horse,learned,learned,C,0.65,block1,20,43,18
29,5270,poem,MC5,MC,NonProj,0,block1,21,43,19
29,9685,garage,revealed,revealed,C,0.28,block1,22,43,20
30,11060,ditch,is_annoyed,is_annoyed,C,0.02,block1,3,27,1
30,6426,chili,found_out,found_out,C,0,block1,4,27,2
30,6698,purple,discovered,discovered,C,0.01,block1,5,27,3
30,6275,garage,learned,learned,C,0.01,block1,6,27,4
30,6181,dancing,noticed,noticed,C,0.04,block1,7,27,5
30,4474,bmw,established,established,C,0.02,block1,8,27,6
30,2417,poodle,MC7,MC,NonProj,0.02,block1,9,27,7
30,3307,swing,is_amused,is_amused,C,0.02,block1,10,27,8
30,8604,hat,is_aware,is_aware,C,0.02,block1,11,27,9
30,3831,tea,realize,realize,C,0.04,block1,12,27,10
30,4907,picture,MC8,MC,NonProj,0.01,block1,13,27,11
30,3902,damp,MC5,MC,NonProj,0.03,block1,14,27,12
30,2654,cupcakes,MC1,MC,NonProj,0.02,block1,15,27,13
30,2053,nails,MC2,MC,NonProj,0.03,block1,16,27,14
30,3580,horse,revealed,revealed,C,0.02,block1,17,27,15
30,2747,frisbee,MC6,MC,NonProj,0.02,block1,18,27,16
30,2135,pool,MC4,MC,NonProj,0.03,block1,19,27,17
30,3224,poem,confessed,confessed,C,0.03,block1,20,27,18
30,3150,yoga,saw,saw,C,0.03,block1,21,27,19
30,2020,zoo,MC3,MC,NonProj,0.04,block1,22,27,20
31,12208,zoo,MC6,MC,NonProj,0,block1,3,28,1
31,30343,yoga,confessed,confessed,C,0.74,block1,4,28,2
31,10104,tea,discovered,discovered,C,0.74,block1,5,28,3
31,4736,swing,MC3,MC,NonProj,0,block1,6,28,4
31,5976,poem,MC7,MC,NonProj,0,block1,7,28,5
31,14760,horse,revealed,revealed,C,0,block1,8,28,6
31,3832,purple,MC1,MC,NonProj,0,block1,9,28,7
31,14200,hat,saw,saw,C,1,block1,10,28,8
31,7832,frisbee,noticed,noticed,C,0.78,block1,11,28,9
31,9887,garage,is_aware,is_aware,C,0.8,block1,12,28,10
31,4640,picture,MC5,MC,NonProj,0,block1,13,28,11
31,7488,poodle,learned,learned,C,0.77,block1,14,28,12
31,6280,dancing,MC4,MC,NonProj,0,block1,15,28,13
31,4504,nails,MC8,MC,NonProj,0,block1,16,28,14
31,8424,bmw,realize,realize,C,0.8,block1,17,28,15
31,7008,damp,is_annoyed,is_annoyed,C,1,block1,18,28,16
31,3431,chili,MC2,MC,NonProj,0,block1,19,28,17
31,10992,pool,established,established,C,0.16,block1,20,28,18
31,10745,ditch,found_out,found_out,C,0.16,block1,21,28,19
31,6599,cupcakes,is_amused,is_amused,C,0.86,block1,22,28,20
32,12213,zoo,MC8,MC,NonProj,0.08,block1,3,62,1
32,12992,picture,MC1,MC,NonProj,0.13,block1,4,62,2
32,12576,chili,is_aware,is_aware,C,0.86,block1,5,62,3
32,8120,dancing,found_out,found_out,C,0.87,block1,6,62,4
32,8870,damp,MC3,MC,NonProj,0.12,block1,7,62,5
32,8512,tea,MC2,MC,NonProj,0.09,block1,8,62,6
32,14927,pool,learned,learned,C,0.67,block1,9,62,7
32,14559,garage,revealed,revealed,C,0.85,block1,10,62,8
32,7848,poem,discovered,discovered,C,0.79,block1,11,62,9
32,5824,horse,MC4,MC,NonProj,0.07,block1,12,62,10
32,9800,yoga,confessed,confessed,C,0.82,block1,13,62,11
32,6199,bmw,MC7,MC,NonProj,0.04,block1,14,62,12
32,10512,poodle,noticed,noticed,C,0.81,block1,15,62,13
32,4449,nails,MC5,MC,NonProj,0.05,block1,16,62,14
32,6351,purple,saw,saw,C,0.8,block1,17,62,15
32,6360,ditch,realize,realize,C,0.81,block1,18,62,16
32,6264,cupcakes,MC6,MC,NonProj,0.04,block1,19,62,17
32,11744,swing,is_amused,is_amused,C,0.69,block1,20,62,18
32,7784,hat,is_annoyed,is_annoyed,C,0.86,block1,21,62,19
32,10160,frisbee,established,established,C,0.67,block1,22,62,20
33,10754,dancing,MC5,MC,NonProj,0,block1,3,33,1
33,8040,purple,is_amused,is_amused,C,1,block1,4,33,2
33,13728,cupcakes,is_annoyed,is_annoyed,C,1,block1,5,33,3
33,24996,tea,MC7,MC,NonProj,0,block1,6,33,4
33,6610,poem,MC2,MC,NonProj,0,block1,7,33,5
33,3704,nails,MC6,MC,NonProj,0,block1,8,33,6
33,9776,ditch,noticed,noticed,C,1,block1,9,33,7
33,5928,picture,is_aware,is_aware,C,1,block1,10,33,8
33,3479,horse,MC4,MC,NonProj,0,block1,11,33,9
33,5744,frisbee,learned,learned,C,1,block1,12,33,10
33,4168,chili,found_out,found_out,C,1,block1,13,33,11
33,16216,swing,confessed,confessed,C,1,block1,14,33,12
33,3440,zoo,MC3,MC,NonProj,0,block1,15,33,13
33,9888,damp,saw,saw,C,0.97,block1,16,33,14
33,8063,bmw,established,established,C,0,block1,17,33,15
33,6177,garage,discovered,discovered,C,1,block1,18,33,16
33,11078,yoga,revealed,revealed,C,1,block1,19,33,17
33,20992,hat,realize,realize,C,1,block1,20,33,18
33,3215,pool,MC1,MC,NonProj,0,block1,21,33,19
33,2640,poodle,MC8,MC,NonProj,0,block1,22,33,20
34,8453,chili,established,established,C,0.07,block1,3,32,1
34,10679,hat,found_out,found_out,C,0.44,block1,4,32,2
34,7943,picture,MC7,MC,NonProj,0.04,block1,5,32,3
34,4784,horse,MC4,MC,NonProj,0.03,block1,6,32,4
34,8020,tea,MC1,MC,NonProj,0.02,block1,7,32,5
34,5999,garage,MC2,MC,NonProj,0.03,block1,8,32,6
34,8092,zoo,revealed,revealed,C,0.51,block1,9,32,7
34,6783,swing,realize,realize,C,0.52,block1,10,32,8
34,5784,frisbee,MC6,MC,NonProj,0.01,block1,11,32,9
34,3716,poodle,MC5,MC,NonProj,0.02,block1,12,32,10
34,10211,poem,noticed,noticed,C,0.52,block1,13,32,11
34,4545,nails,is_annoyed,is_annoyed,C,0.54,block1,14,32,12
34,7320,dancing,confessed,confessed,C,0.42,block1,15,32,13
34,6556,yoga,saw,saw,C,0.51,block1,16,32,14
34,6079,bmw,learned,learned,C,0.49,block1,17,32,15
34,7628,ditch,is_aware,is_aware,C,0.54,block1,18,32,16
34,7284,pool,discovered,discovered,C,0.54,block1,19,32,17
34,3934,purple,MC8,MC,NonProj,0.02,block1,20,32,18
34,7808,cupcakes,is_amused,is_amused,C,0.58,block1,21,32,19
34,3684,damp,MC3,MC,NonProj,0,block1,22,32,20
35,22334,nails,is_amused,is_amused,C,1,block1,3,35,1
35,11514,cupcakes,MC8,MC,NonProj,0,block1,4,35,2
35,11460,poodle,discovered,discovered,C,0.22,block1,5,35,3
35,23205,picture,noticed,noticed,C,0.28,block1,6,35,4
35,8191,garage,found_out,found_out,C,0,block1,7,35,5
35,6079,ditch,MC4,MC,NonProj,0,block1,8,35,6
35,14772,hat,established,established,C,0.09,block1,9,35,7
35,11020,chili,revealed,revealed,C,0.28,block1,10,35,8
35,19022,yoga,learned,learned,C,0.5,block1,11,35,9
35,6101,zoo,MC2,MC,NonProj,0,block1,12,35,10
35,10964,frisbee,is_annoyed,is_annoyed,C,1,block1,13,35,11
35,6379,pool,MC5,MC,NonProj,0,block1,14,35,12
35,7843,dancing,is_aware,is_aware,C,0.9,block1,15,35,13
35,9164,tea,confessed,confessed,C,0.46,block1,16,35,14
35,10940,damp,saw,saw,C,0.05,block1,17,35,15
35,4121,horse,MC1,MC,NonProj,0,block1,18,35,16
35,6587,swing,MC6,MC,NonProj,0,block1,19,35,17
35,8586,purple,realize,realize,C,0.93,block1,20,35,18
35,4978,bmw,MC3,MC,NonProj,0,block1,21,35,19
35,7790,poem,MC7,MC,NonProj,0,block1,22,35,20
36,62469,pool,MC2,MC,NonProj,0,block1,3,18,1
36,3039,poem,MC4,MC,NonProj,0,block1,4,18,2
36,4558,cupcakes,discovered,discovered,C,0.84,block1,5,18,3
36,5439,dancing,confessed,confessed,C,0.81,block1,6,18,4
36,3616,swing,MC5,MC,NonProj,0,block1,7,18,5
36,3128,frisbee,is_annoyed,is_annoyed,C,0.99,block1,8,18,6
36,3048,picture,MC7,MC,NonProj,0,block1,9,18,7
36,4056,yoga,saw,saw,C,0.9,block1,10,18,8
36,2513,poodle,MC1,MC,NonProj,0,block1,11,18,9
36,3208,nails,established,established,C,0.72,block1,12,18,10
36,6823,bmw,MC6,MC,NonProj,0,block1,13,18,11
36,2672,damp,MC8,MC,NonProj,0,block1,14,18,12
36,2351,purple,realize,realize,C,0.81,block1,15,18,13
36,4520,tea,revealed,revealed,C,0.87,block1,16,18,14
36,3609,horse,is_aware,is_aware,C,1,block1,17,18,15
36,2406,zoo,noticed,noticed,C,0.86,block1,18,18,16
36,2319,garage,learned,learned,C,0.88,block1,19,18,17
36,2648,hat,MC3,MC,NonProj,0,block1,20,18,18
36,4096,chili,found_out,found_out,C,0.97,block1,21,18,19
36,2471,ditch,is_amused,is_amused,C,0.8,block1,22,18,20
37,18814,swing,MC5,MC,NonProj,0,block1,3,41,1
37,13565,hat,is_aware,is_aware,C,0.66,block1,4,41,2
37,15321,ditch,noticed,noticed,C,0.69,block1,5,41,3
37,8740,zoo,learned,learned,C,0.75,block1,6,41,4
37,8010,tea,is_amused,is_amused,C,0.79,block1,7,41,5
37,7252,purple,realize,realize,C,0.73,block1,8,41,6
37,15213,horse,established,established,C,0.03,block1,9,41,7
37,10897,bmw,discovered,discovered,C,0,block1,10,41,8
37,8250,yoga,MC4,MC,NonProj,0.01,block1,11,41,9
37,8816,poem,MC2,MC,NonProj,0,block1,12,41,10
37,11038,frisbee,is_annoyed,is_annoyed,C,0.86,block1,13,41,11
37,7612,cupcakes,MC7,MC,NonProj,0,block1,14,41,12
37,8385,dancing,MC1,MC,NonProj,0,block1,15,41,13
37,10885,chili,saw,saw,C,0,block1,16,41,14
37,8010,garage,found_out,found_out,C,0,block1,17,41,15
37,7985,damp,MC8,MC,NonProj,0,block1,18,41,16
37,12411,nails,confessed,confessed,C,0,block1,19,41,17
37,9080,poodle,revealed,revealed,C,0,block1,20,41,18
37,6430,pool,MC3,MC,NonProj,0,block1,21,41,19
37,11477,picture,MC6,MC,NonProj,0,block1,22,41,20
38,12709,garage,saw,saw,C,0.8,block1,3,33,1
38,6474,tea,MC2,MC,NonProj,0.08,block1,4,33,2
38,7770,chili,discovered,discovered,C,0.51,block1,5,33,3
38,13050,cupcakes,realize,realize,C,0.55,block1,6,33,4
38,6867,poodle,MC4,MC,NonProj,0.03,block1,7,33,5
38,14299,picture,MC1,MC,NonProj,0.07,block1,8,33,6
38,8799,zoo,revealed,revealed,C,0.59,block1,9,33,7
38,10994,frisbee,MC5,MC,NonProj,0.03,block1,10,33,8
38,13060,damp,MC6,MC,NonProj,0.09,block1,11,33,9
38,8889,horse,learned,learned,C,0.58,block1,12,33,10
38,9311,ditch,confessed,confessed,C,0.61,block1,13,33,11
38,6721,purple,is_aware,is_aware,C,0.67,block1,14,33,12
38,6863,yoga,established,established,C,0.66,block1,15,33,13
38,8905,pool,noticed,noticed,C,0.64,block1,16,33,14
38,44713,swing,is_annoyed,is_annoyed,C,0.79,block1,17,33,15
38,6135,hat,found_out,found_out,C,0.71,block1,18,33,16
38,7663,nails,MC7,MC,NonProj,0.1,block1,19,33,17
38,9272,poem,is_amused,is_amused,C,0.72,block1,20,33,18
38,3059,dancing,MC8,MC,NonProj,0.08,block1,21,33,19
38,6128,bmw,MC3,MC,NonProj,0.04,block1,22,33,20
39,12568,poem,MC7,MC,NonProj,0.03,block1,3,35,1
39,9257,garage,is_amused,is_amused,C,0.99,block1,4,35,2
39,7649,bmw,MC3,MC,NonProj,0.04,block1,5,35,3
39,15749,cupcakes,found_out,found_out,C,1,block1,6,35,4
39,6529,zoo,MC1,MC,NonProj,0.03,block1,7,35,5
39,5686,poodle,noticed,noticed,C,0.99,block1,8,35,6
39,6743,nails,MC6,MC,NonProj,0.03,block1,9,35,7
39,4384,pool,MC2,MC,NonProj,0.03,block1,10,35,8
39,9220,horse,revealed,revealed,C,0.97,block1,11,35,9
39,6755,yoga,discovered,discovered,C,0.97,block1,12,35,10
39,8897,picture,is_annoyed,is_annoyed,C,1,block1,13,35,11
39,9557,tea,realize,realize,C,0.98,block1,14,35,12
39,7194,frisbee,MC5,MC,NonProj,0.03,block1,15,35,13
39,7094,damp,is_aware,is_aware,C,0.97,block1,16,35,14
39,7013,purple,learned,learned,C,0.97,block1,17,35,15
39,6232,ditch,saw,saw,C,0.96,block1,18,35,16
39,7148,hat,established,established,C,0.98,block1,19,35,17
39,5296,chili,MC8,MC,NonProj,0.01,block1,20,35,18
39,6881,swing,MC4,MC,NonProj,0.02,block1,21,35,19
39,11124,dancing,confessed,confessed,C,0.97,block1,22,35,20
40,13827,poodle,MC4,MC,NonProj,0.02,block1,3,34,1
40,13798,pool,noticed,noticed,C,1,block1,4,34,2
40,13980,damp,saw,saw,C,1,block1,5,34,3
40,8664,dancing,learned,learned,C,1,block1,6,34,4
40,12544,zoo,revealed,revealed,C,0.78,block1,7,34,5
40,7724,nails,discovered,discovered,C,1,block1,8,34,6
40,8392,poem,MC6,MC,NonProj,0.02,block1,9,34,7
40,7408,cupcakes,MC1,MC,NonProj,0.02,block1,10,34,8
40,8815,swing,MC3,MC,NonProj,0.02,block1,11,34,9
40,9820,ditch,established,established,C,0.89,block1,12,34,10
40,11174,tea,realize,realize,C,1,block1,13,34,11
40,5597,yoga,MC5,MC,NonProj,0.01,block1,14,34,12
40,5381,frisbee,is_amused,is_amused,C,0.95,block1,15,34,13
40,6849,bmw,is_aware,is_aware,C,0.98,block1,16,34,14
40,7014,hat,is_annoyed,is_annoyed,C,1,block1,17,34,15
40,6279,picture,MC7,MC,NonProj,0,block1,18,34,16
40,7695,chili,found_out,found_out,C,0.99,block1,19,34,17
40,5787,garage,confessed,confessed,C,0.98,block1,20,34,18
40,5678,purple,MC8,MC,NonProj,0.01,block1,21,34,19
40,5866,horse,MC2,MC,NonProj,0.02,block1,22,34,20
41,11744,ditch,discovered,discovered,C,0.98,block1,3,33,1
41,9000,bmw,realize,realize,C,0.97,block1,4,33,2
41,4351,zoo,learned,learned,C,0.98,block1,5,33,3
41,8366,dancing,MC6,MC,NonProj,0.01,block1,6,33,4
41,5333,horse,MC7,MC,NonProj,0.03,block1,7,33,5
41,9168,cupcakes,is_amused,is_amused,C,0.97,block1,8,33,6
41,4783,yoga,MC2,MC,NonProj,0.02,block1,9,33,7
41,6180,nails,MC8,MC,NonProj,0.04,block1,10,33,8
41,4391,garage,MC5,MC,NonProj,0.02,block1,11,33,9
41,5046,hat,is_aware,is_aware,C,0.99,block1,12,33,10
41,4763,purple,saw,saw,C,0.97,block1,13,33,11
41,5567,pool,is_annoyed,is_annoyed,C,0.96,block1,14,33,12
41,5615,picture,noticed,noticed,C,0.97,block1,15,33,13
41,5600,tea,confessed,confessed,C,0.97,block1,16,33,14
41,8617,damp,MC4,MC,NonProj,0.03,block1,17,33,15
41,5633,chili,MC3,MC,NonProj,0.04,block1,18,33,16
41,6130,poodle,found_out,found_out,C,1,block1,19,33,17
41,5969,frisbee,established,established,C,0.99,block1,20,33,18
41,4584,swing,MC1,MC,NonProj,0.03,block1,21,33,19
41,5548,poem,revealed,revealed,C,0.98,block1,22,33,20
42,9478,picture,MC4,MC,NonProj,0.03,block1,3,24,1
42,7051,poem,is_aware,is_aware,C,0.98,block1,4,24,2
42,5695,zoo,is_amused,is_amused,C,0.99,block1,5,24,3
42,8575,bmw,is_annoyed,is_annoyed,C,0.96,block1,6,24,4
42,10001,chili,revealed,revealed,C,0.0600000000000001,block1,7,24,5
42,3767,poodle,MC8,MC,NonProj,0.03,block1,8,24,6
42,5747,purple,noticed,noticed,C,0.24,block1,9,24,7
42,4005,frisbee,MC7,MC,NonProj,0.01,block1,10,24,8
42,3666,dancing,MC2,MC,NonProj,0.01,block1,11,24,9
42,5003,nails,learned,learned,C,0.83,block1,12,24,10
42,2896,pool,MC3,MC,NonProj,0,block1,13,24,11
42,5055,horse,saw,saw,C,0.84,block1,14,24,12
42,6981,damp,discovered,discovered,C,0.11,block1,15,24,13
42,4207,yoga,established,established,C,0.37,block1,16,24,14
42,25568,garage,realize,realize,C,0.97,block1,17,24,15
42,3833,hat,MC5,MC,NonProj,0.07,block1,18,24,16
42,2851,tea,MC6,MC,NonProj,0.03,block1,19,24,17
42,5608,ditch,found_out,found_out,C,0.79,block1,20,24,18
42,5264,swing,confessed,confessed,C,0.67,block1,21,24,19
42,19856,cupcakes,MC1,MC,NonProj,0.03,block1,22,24,20
43,22792,cupcakes,confessed,confessed,C,0.1,block1,3,27,1
43,9448,chili,MC8,MC,NonProj,0,block1,4,27,2
43,10416,damp,MC3,MC,NonProj,0,block1,5,27,3
43,54292,tea,found_out,found_out,C,0.87,block1,6,27,4
43,8296,poodle,discovered,discovered,C,1,block1,7,27,5
43,9425,dancing,is_amused,is_amused,C,0.91,block1,8,27,6
43,8473,garage,noticed,noticed,C,0.91,block1,9,27,7
43,10656,yoga,established,established,C,0.9,block1,10,27,8
43,9273,ditch,MC1,MC,NonProj,0.03,block1,11,27,9
43,8129,purple,realize,realize,C,0.93,block1,12,27,10
43,6808,pool,MC4,MC,NonProj,0.02,block1,13,27,11
43,9481,swing,is_annoyed,is_annoyed,C,0.98,block1,14,27,12
43,9624,horse,MC7,MC,NonProj,0.01,block1,15,27,13
43,11457,zoo,is_aware,is_aware,C,0.97,block1,16,27,14
43,9072,bmw,MC2,MC,NonProj,0,block1,17,27,15
43,6721,poem,revealed,revealed,C,0.95,block1,18,27,16
43,4224,hat,saw,saw,C,0.99,block1,19,27,17
43,14976,nails,learned,learned,C,0.96,block1,20,27,18
43,5185,frisbee,MC5,MC,NonProj,0,block1,21,27,19
43,8994,picture,MC6,MC,NonProj,0,block1,22,27,20
44,10294,hat,revealed,revealed,C,0.03,block1,3,21,1
44,4787,cupcakes,saw,saw,C,0.02,block1,4,21,2
44,5482,damp,MC2,MC,NonProj,0.02,block1,5,21,3
44,3169,picture,noticed,noticed,C,0,block1,6,21,4
44,3731,ditch,is_annoyed,is_annoyed,C,0.05,block1,7,21,5
44,12156,tea,found_out,found_out,C,0,block1,8,21,6
44,3336,frisbee,MC7,MC,NonProj,0.01,block1,9,21,7
44,7294,horse,MC5,MC,NonProj,0.01,block1,10,21,8
44,3528,dancing,realize,realize,C,0.03,block1,11,21,9
44,8015,nails,confessed,confessed,C,0.64,block1,12,21,10
44,5004,purple,discovered,discovered,C,0.77,block1,13,21,11
44,5220,yoga,learned,learned,C,0.01,block1,14,21,12
44,3048,poodle,is_aware,is_aware,C,0.78,block1,15,21,13
44,4463,bmw,MC8,MC,NonProj,0.03,block1,16,21,14
44,2076,zoo,MC4,MC,NonProj,0.03,block1,17,21,15
44,2064,poem,MC6,MC,NonProj,0,block1,18,21,16
44,2315,garage,MC3,MC,NonProj,0.07,block1,19,21,17
44,3061,chili,is_amused,is_amused,C,0.12,block1,20,21,18
44,2831,pool,MC1,MC,NonProj,0.07,block1,21,21,19
44,2784,swing,established,established,C,0,block1,22,21,20
45,7766,poem,MC3,MC,NonProj,0.17,block1,3,24,1
45,5911,nails,revealed,revealed,C,0.15,block1,4,24,2
45,2885,hat,MC1,MC,NonProj,0.18,block1,5,24,3
45,16128,poodle,discovered,discovered,C,0.5,block1,6,24,4
45,6164,frisbee,is_amused,is_amused,C,0.67,block1,7,24,5
45,3736,cupcakes,MC4,MC,NonProj,0.2,block1,8,24,6
45,5883,swing,is_annoyed,is_annoyed,C,0.64,block1,9,24,7
45,13885,yoga,MC5,MC,NonProj,0.1,block1,10,24,8
45,18373,tea,noticed,noticed,C,0.76,block1,11,24,9
45,3187,ditch,realize,realize,C,0.76,block1,12,24,10
45,4540,zoo,established,established,C,0.7,block1,13,24,11
45,10242,pool,found_out,found_out,C,0.71,block1,14,24,12
45,3006,garage,saw,saw,C,0.7,block1,15,24,13
45,2083,chili,MC6,MC,NonProj,0.2,block1,16,24,14
45,11820,picture,MC8,MC,NonProj,0.25,block1,17,24,15
45,5943,damp,confessed,confessed,C,0.74,block1,18,24,16
45,3158,dancing,learned,learned,C,0.77,block1,19,24,17
45,2827,horse,is_aware,is_aware,C,0.75,block1,20,24,18
45,2542,bmw,MC7,MC,NonProj,0.22,block1,21,24,19
45,2148,purple,MC2,MC,NonProj,0.24,block1,22,24,20
46,8535,purple,is_amused,is_amused,C,0.85,block1,3,22,1
46,6231,cupcakes,saw,saw,C,0.77,block1,4,22,2
46,6447,frisbee,established,established,C,0.86,block1,5,22,3
46,4160,hat,MC3,MC,NonProj,0.09,block1,6,22,4
46,3399,poem,MC4,MC,NonProj,0.04,block1,7,22,5
46,4431,nails,MC8,MC,NonProj,0.04,block1,8,22,6
46,5472,yoga,MC5,MC,NonProj,0.08,block1,9,22,7
46,5180,chili,discovered,discovered,C,0.96,block1,10,22,8
46,4005,zoo,MC1,MC,NonProj,0.11,block1,11,22,9
46,4034,poodle,is_annoyed,is_annoyed,C,0.89,block1,12,22,10
46,6193,damp,learned,learned,C,0.98,block1,13,22,11
46,6079,garage,MC2,MC,NonProj,0,block1,14,22,12
46,12697,pool,realize,realize,C,0.94,block1,15,22,13
46,3679,tea,MC7,MC,NonProj,0.07,block1,16,22,14
46,3288,horse,noticed,noticed,C,0.92,block1,17,22,15
46,5792,swing,is_aware,is_aware,C,0.88,block1,18,22,16
46,4689,dancing,confessed,confessed,C,0.83,block1,19,22,17
46,9311,picture,MC6,MC,NonProj,0.03,block1,20,22,18
46,6707,ditch,revealed,revealed,C,0.89,block1,21,22,19
46,6064,bmw,found_out,found_out,C,0.98,block1,22,22,20
47,15388,dancing,MC3,MC,NonProj,0,block1,3,33,1
47,9864,zoo,learned,learned,C,0,block1,4,33,2
47,8983,poodle,revealed,revealed,C,0.17,block1,5,33,3
47,11597,swing,MC6,MC,NonProj,0.22,block1,6,33,4
47,9538,frisbee,noticed,noticed,C,0.12,block1,7,33,5
47,6592,poem,MC7,MC,NonProj,0,block1,8,33,6
47,6708,tea,MC1,MC,NonProj,0.03,block1,9,33,7
47,5314,horse,MC5,MC,NonProj,0.02,block1,10,33,8
47,10300,ditch,established,established,C,0.02,block1,11,33,9
47,6468,cupcakes,realize,realize,C,0.02,block1,12,33,10
47,6253,garage,MC2,MC,NonProj,0.02,block1,13,33,11
47,5145,pool,confessed,confessed,C,0.02,block1,14,33,12
47,10167,bmw,is_aware,is_aware,C,0.02,block1,15,33,13
47,5827,picture,MC8,MC,NonProj,0.01,block1,16,33,14
47,5854,hat,found_out,found_out,C,0.03,block1,17,33,15
47,9299,nails,MC4,MC,NonProj,0,block1,18,33,16
47,7550,damp,is_annoyed,is_annoyed,C,0.46,block1,19,33,17
47,10590,yoga,saw,saw,C,0.72,block1,20,33,18
47,5893,purple,discovered,discovered,C,0.51,block1,21,33,19
47,7735,chili,is_amused,is_amused,C,0.65,block1,22,33,20
48,7219,zoo,MC5,MC,NonProj,0.03,block1,3,35,1
48,8888,frisbee,is_amused,is_amused,C,0.97,block1,4,35,2
48,5253,purple,MC8,MC,NonProj,0.04,block1,5,35,3
48,6498,yoga,MC6,MC,NonProj,0,block1,6,35,4
48,5209,swing,MC3,MC,NonProj,0.02,block1,7,35,5
48,8633,damp,is_aware,is_aware,C,0.97,block1,8,35,6
48,10080,dancing,learned,learned,C,0.98,block1,9,35,7
48,6516,hat,noticed,noticed,C,0.98,block1,10,35,8
48,8769,ditch,MC7,MC,NonProj,0.02,block1,11,35,9
48,6845,pool,is_annoyed,is_annoyed,C,0.97,block1,12,35,10
48,5364,poodle,MC4,MC,NonProj,0.03,block1,13,35,11
48,4666,garage,MC2,MC,NonProj,0.01,block1,14,35,12
48,7373,chili,discovered,discovered,C,0.97,block1,15,35,13
48,5499,picture,MC1,MC,NonProj,0.02,block1,16,35,14
48,12345,poem,confessed,confessed,C,0.95,block1,17,35,15
48,8035,tea,revealed,revealed,C,0.98,block1,18,35,16
48,9078,cupcakes,saw,saw,C,0.96,block1,19,35,17
48,6394,bmw,found_out,found_out,C,0.97,block1,20,35,18
48,4752,horse,established,established,C,0.96,block1,21,35,19
48,5132,nails,realize,realize,C,0.97,block1,22,35,20
49,27149,zoo,learned,learned,C,0.8,block1,3,30,1
49,12280,tea,MC5,MC,NonProj,0.01,block1,4,30,2
49,7545,horse,MC1,MC,NonProj,0,block1,5,30,3
49,10823,dancing,MC3,MC,NonProj,0,block1,6,30,4
49,15822,ditch,is_amused,is_amused,C,0.99,block1,7,30,5
49,16049,damp,discovered,discovered,C,0.98,block1,8,30,6
49,11007,pool,is_annoyed,is_annoyed,C,1,block1,9,30,7
49,19959,cupcakes,revealed,revealed,C,1,block1,10,30,8
49,17048,swing,saw,saw,C,1,block1,11,30,9
49,12472,frisbee,is_aware,is_aware,C,0.96,block1,12,30,10
49,9881,nails,realize,realize,C,1,block1,13,30,11
49,9102,yoga,MC7,MC,NonProj,0,block1,14,30,12
49,9367,hat,MC2,MC,NonProj,0.02,block1,15,30,13
49,10896,garage,established,established,C,1,block1,16,30,14
49,19887,picture,found_out,found_out,C,1,block1,17,30,15
49,9135,poodle,confessed,confessed,C,1,block1,18,30,16
49,6258,chili,MC8,MC,NonProj,0,block1,19,30,17
49,11326,bmw,MC6,MC,NonProj,0,block1,20,30,18
49,11495,poem,noticed,noticed,C,1,block1,21,30,19
49,9744,purple,MC4,MC,NonProj,0,block1,22,30,20
50,12541,hat,MC5,MC,NonProj,0,block1,3,28,1
50,10968,nails,learned,learned,C,0.77,block1,4,28,2
50,12087,chili,saw,saw,C,0.32,block1,5,28,3
50,10566,poem,is_annoyed,is_annoyed,C,0.85,block1,6,28,4
50,5888,purple,is_amused,is_amused,C,0.88,block1,7,28,5
50,5167,dancing,MC1,MC,NonProj,0,block1,8,28,6
50,3383,yoga,MC4,MC,NonProj,0,block1,9,28,7
50,8496,picture,MC7,MC,NonProj,1,block1,10,28,8
50,3951,frisbee,MC2,MC,NonProj,0.01,block1,11,28,9
50,7392,cupcakes,established,established,C,0.66,block1,12,28,10
50,7472,garage,confessed,confessed,C,0.76,block1,13,28,11
50,7072,poodle,discovered,discovered,C,0.42,block1,14,28,12
50,3464,zoo,MC3,MC,NonProj,0,block1,15,28,13
50,4167,ditch,MC8,MC,NonProj,0,block1,16,28,14
50,4265,bmw,noticed,noticed,C,0.63,block1,17,28,15
50,4659,pool,revealed,revealed,C,0.77,block1,18,28,16
50,5899,tea,realize,realize,C,0.54,block1,19,28,17
50,5584,swing,is_aware,is_aware,C,0.68,block1,20,28,18
50,3152,horse,MC6,MC,NonProj,0.02,block1,21,28,19
50,3624,damp,found_out,found_out,C,0.64,block1,22,28,20
51,12540,zoo,MC2,MC,NonProj,0.04,block1,3,39,1
51,5327,poodle,MC6,MC,NonProj,0.05,block1,4,39,2
51,8425,dancing,noticed,noticed,C,0.93,block1,5,39,3
51,12451,bmw,MC4,MC,NonProj,0.05,block1,6,39,4
51,8109,tea,is_amused,is_amused,C,0.93,block1,7,39,5
51,5702,nails,discovered,discovered,C,0.9,block1,8,39,6
51,7726,swing,learned,learned,C,0.92,block1,9,39,7
51,4388,purple,MC8,MC,NonProj,0.07,block1,10,39,8
51,5889,garage,MC7,MC,NonProj,0.0600000000000001,block1,11,39,9
51,6830,horse,MC1,MC,NonProj,0.03,block1,12,39,10
51,6120,pool,confessed,confessed,C,0.94,block1,13,39,11
51,7146,yoga,is_annoyed,is_annoyed,C,0.97,block1,14,39,12
51,7285,hat,found_out,found_out,C,0.99,block1,15,39,13
51,10565,damp,saw,saw,C,0.97,block1,16,39,14
51,11367,chili,revealed,revealed,C,0.93,block1,17,39,15
51,9920,frisbee,established,established,C,0.93,block1,18,39,16
51,9691,picture,is_aware,is_aware,C,0.88,block1,19,39,17
51,4383,cupcakes,MC5,MC,NonProj,0.0600000000000001,block1,20,39,18
51,7039,poem,realize,realize,C,0.93,block1,21,39,19
51,4855,ditch,MC3,MC,NonProj,0.05,block1,22,39,20
52,13605,hat,established,established,C,0,block1,3,21,1
52,5569,frisbee,MC8,MC,NonProj,0,block1,4,21,2
52,4777,bmw,realize,realize,C,0,block1,5,21,3
52,5407,swing,revealed,revealed,C,0,block1,6,21,4
52,7642,purple,is_amused,is_amused,C,0.89,block1,7,21,5
52,5554,poem,MC1,MC,NonProj,0.01,block1,8,21,6
52,11750,tea,is_aware,is_aware,C,0.87,block1,9,21,7
52,6202,poodle,noticed,noticed,C,0.74,block1,10,21,8
52,4076,zoo,MC5,MC,NonProj,0,block1,11,21,9
52,4706,yoga,MC7,MC,NonProj,0,block1,12,21,10
52,4891,picture,MC6,MC,NonProj,0,block1,13,21,11
52,3544,nails,MC3,MC,NonProj,0,block1,14,21,12
52,4553,damp,MC2,MC,NonProj,0,block1,15,21,13
52,5222,garage,found_out,found_out,C,0,block1,16,21,14
52,5672,ditch,discovered,discovered,C,0.73,block1,17,21,15
52,6086,dancing,learned,learned,C,0.84,block1,18,21,16
52,4167,cupcakes,MC4,MC,NonProj,0,block1,19,21,17
52,7264,horse,confessed,confessed,C,0.9,block1,20,21,18
52,4930,pool,is_annoyed,is_annoyed,C,0.93,block1,21,21,19
52,6070,chili,saw,saw,C,0.97,block1,22,21,20
53,9289,ditch,discovered,discovered,C,0,block1,3,24,1
53,4864,pool,MC7,MC,NonProj,0.01,block1,4,24,2
53,9762,poodle,MC3,MC,NonProj,0.03,block1,5,24,3
53,3616,cupcakes,noticed,noticed,C,0.02,block1,6,24,4
53,3126,bmw,MC1,MC,NonProj,0.01,block1,7,24,5
53,3959,purple,MC6,MC,NonProj,0.01,block1,8,24,6
53,3615,horse,learned,learned,C,0.05,block1,9,24,7
53,2912,yoga,MC5,MC,NonProj,0,block1,10,24,8
53,11687,swing,realize,realize,C,1,block1,11,24,9
53,4206,hat,is_annoyed,is_annoyed,C,1,block1,12,24,10
53,5338,zoo,found_out,found_out,C,1,block1,13,24,11
53,3086,tea,MC8,MC,NonProj,0,block1,14,24,12
53,8190,chili,confessed,confessed,C,0.41,block1,15,24,13
53,241423,picture,MC2,MC,NonProj,0.02,block1,16,24,14
53,4201,frisbee,is_amused,is_amused,C,0.97,block1,17,24,15
53,5902,damp,MC4,MC,NonProj,0.0600000000000001,block1,18,24,16
53,2918,poem,is_aware,is_aware,C,1,block1,19,24,17
53,2599,nails,revealed,revealed,C,1,block1,20,24,18
53,3967,garage,established,established,C,1,block1,21,24,19
53,9630,dancing,saw,saw,C,0.38,block1,22,24,20
54,20373,frisbee,revealed,revealed,C,0.04,block1,3,36,1
54,10578,cupcakes,saw,saw,C,0.03,block1,4,36,2
54,8478,yoga,MC3,MC,NonProj,0.04,block1,5,36,3
54,9414,garage,noticed,noticed,C,0.02,block1,6,36,4
54,11339,poem,is_aware,is_aware,C,0.03,block1,7,36,5
54,8162,dancing,MC6,MC,NonProj,0.03,block1,8,36,6
54,15375,damp,MC5,MC,NonProj,0.02,block1,9,36,7
54,11247,hat,realize,realize,C,0.03,block1,10,36,8
54,6602,ditch,found_out,found_out,C,0.01,block1,11,36,9
54,5697,horse,MC4,MC,NonProj,0.02,block1,12,36,10
54,12334,bmw,is_amused,is_amused,C,0.02,block1,13,36,11
54,4768,poodle,MC1,MC,NonProj,0.02,block1,14,36,12
54,7225,zoo,confessed,confessed,C,0.01,block1,15,36,13
54,6881,swing,MC7,MC,NonProj,0.01,block1,16,36,14
54,4741,nails,MC2,MC,NonProj,0.01,block1,17,36,15
54,5659,purple,learned,learned,C,0.02,block1,18,36,16
54,5583,pool,MC8,MC,NonProj,0.01,block1,19,36,17
54,8300,picture,established,established,C,0.02,block1,20,36,18
54,10662,chili,is_annoyed,is_annoyed,C,0.02,block1,21,36,19
54,7533,tea,discovered,discovered,C,0.02,block1,22,36,20
55,19558,dancing,confessed,confessed,C,0.57,block1,3,28,1
55,13655,pool,MC7,MC,NonProj,0.01,block1,4,28,2
55,8207,cupcakes,discovered,discovered,C,0.38,block1,5,28,3
55,7047,poodle,noticed,noticed,C,0.38,block1,6,28,4
55,4113,hat,MC8,MC,NonProj,0,block1,7,28,5
55,6479,ditch,MC2,MC,NonProj,0.01,block1,8,28,6
55,5536,frisbee,MC5,MC,NonProj,0,block1,9,28,7
55,8720,horse,is_annoyed,is_annoyed,C,0.68,block1,10,28,8
55,5928,poem,learned,learned,C,0.35,block1,11,28,9
55,5584,purple,MC6,MC,NonProj,0.01,block1,12,28,10
55,10847,bmw,found_out,found_out,C,0.37,block1,13,28,11
55,6975,nails,MC3,MC,NonProj,0,block1,14,28,12
55,31848,picture,realize,realize,C,0.37,block1,15,28,13
55,3223,swing,MC1,MC,NonProj,0.01,block1,16,28,14
55,8407,yoga,saw,saw,C,0.5,block1,17,28,15
55,9104,chili,revealed,revealed,C,0.34,block1,18,28,16
55,6336,damp,is_amused,is_amused,C,0.55,block1,19,28,17
55,4824,garage,established,established,C,0.36,block1,20,28,18
55,7816,tea,is_aware,is_aware,C,0.58,block1,21,28,19
55,4671,zoo,MC4,MC,NonProj,0,block1,22,28,20
56,10422,dancing,learned,learned,C,0.99,block1,3,32,1
56,4872,hat,MC2,MC,NonProj,0.02,block1,4,32,2
56,6416,nails,is_annoyed,is_annoyed,C,1,block1,5,32,3
56,3518,poodle,MC1,MC,NonProj,0.01,block1,6,32,4
56,4263,chili,is_aware,is_aware,C,0.97,block1,7,32,5
56,5191,poem,discovered,discovered,C,0.97,block1,8,32,6
56,3952,yoga,MC4,MC,NonProj,0.03,block1,9,32,7
56,6108,frisbee,confessed,confessed,C,0.98,block1,10,32,8
56,5718,cupcakes,MC8,MC,NonProj,0.02,block1,11,32,9
56,4009,tea,found_out,found_out,C,0.99,block1,12,32,10
56,8618,picture,revealed,revealed,C,0.98,block1,13,32,11
56,4702,zoo,is_amused,is_amused,C,1,block1,14,32,12
56,5983,purple,established,established,C,0.97,block1,15,32,13
56,3239,horse,MC3,MC,NonProj,0.03,block1,16,32,14
56,3959,swing,MC6,MC,NonProj,0.03,block1,17,32,15
56,3509,damp,MC7,MC,NonProj,0.03,block1,18,32,16
56,5888,bmw,saw,saw,C,0.98,block1,19,32,17
56,12222,ditch,noticed,noticed,C,0.81,block1,20,32,18
56,7618,garage,realize,realize,C,0.98,block1,21,32,19
56,4181,pool,MC5,MC,NonProj,0.01,block1,22,32,20
57,10793,chili,MC1,MC,NonProj,0,block1,3,46,1
57,25663,cupcakes,found_out,found_out,C,1,block1,4,46,2
57,8928,nails,revealed,revealed,C,0.97,block1,5,46,3
57,9927,hat,MC3,MC,NonProj,0,block1,6,46,4
57,11239,damp,MC8,MC,NonProj,0.01,block1,7,46,5
57,9889,ditch,is_amused,is_amused,C,0.99,block1,8,46,6
57,6591,horse,learned,learned,C,0.99,block1,9,46,7
57,6279,frisbee,MC5,MC,NonProj,0.01,block1,10,46,8
57,6999,zoo,MC4,MC,NonProj,0.02,block1,11,46,9
57,10704,purple,realize,realize,C,1,block1,12,46,10
57,9567,bmw,saw,saw,C,1,block1,13,46,11
57,8136,poodle,is_annoyed,is_annoyed,C,1,block1,14,46,12
57,8175,swing,MC7,MC,NonProj,0,block1,15,46,13
57,10136,pool,confessed,confessed,C,1,block1,16,46,14
57,7343,yoga,is_aware,is_aware,C,1,block1,17,46,15
57,8768,tea,discovered,discovered,C,1,block1,18,46,16
57,11576,poem,noticed,noticed,C,1,block1,19,46,17
57,7607,garage,MC2,MC,NonProj,0,block1,20,46,18
57,12800,dancing,established,established,C,1,block1,21,46,19
57,6815,picture,MC6,MC,NonProj,0,block1,22,46,20
58,16481,bmw,is_amused,is_amused,C,0.98,block1,3,20,1
58,23787,damp,saw,saw,C,0.43,block1,4,20,2
58,6448,frisbee,MC6,MC,NonProj,0.03,block1,5,20,3
58,12964,garage,is_aware,is_aware,C,0.46,block1,6,20,4
58,7815,chili,MC5,MC,NonProj,0.04,block1,7,20,5
58,6640,picture,MC3,MC,NonProj,0.05,block1,8,20,6
58,6766,poodle,confessed,confessed,C,0.46,block1,9,20,7
58,8182,hat,MC8,MC,NonProj,0.03,block1,10,20,8
58,6394,horse,revealed,revealed,C,0.49,block1,11,20,9
58,6023,nails,noticed,noticed,C,0.47,block1,12,20,10
58,5461,cupcakes,MC2,MC,NonProj,0.03,block1,13,20,11
58,4776,purple,found_out,found_out,C,0.43,block1,14,20,12
58,5063,swing,MC1,MC,NonProj,0.02,block1,15,20,13
58,5006,ditch,established,established,C,0.41,block1,16,20,14
58,4303,dancing,realize,realize,C,0.37,block1,17,20,15
58,5281,tea,learned,learned,C,0.32,block1,18,20,16
58,5516,zoo,MC4,MC,NonProj,0.02,block1,19,20,17
58,4615,yoga,MC7,MC,NonProj,0.01,block1,20,20,18
58,4219,poem,discovered,discovered,C,0.38,block1,21,20,19
58,4093,pool,is_annoyed,is_annoyed,C,0.38,block1,22,20,20
59,13635,chili,MC8,MC,NonProj,0.01,block1,3,33,1
59,314461,horse,noticed,noticed,C,0.98,block1,4,33,2
59,9486,zoo,confessed,confessed,C,0.97,block1,5,33,3
59,6030,cupcakes,discovered,discovered,C,0.51,block1,6,33,4
59,5473,poem,is_amused,is_amused,C,0.5,block1,7,33,5
59,5583,ditch,found_out,found_out,C,0.51,block1,8,33,6
59,11086,hat,revealed,revealed,C,0.52,block1,9,33,7
59,5976,picture,established,established,C,0.52,block1,10,33,8
59,4478,poodle,MC2,MC,NonProj,0.01,block1,11,33,9
59,3470,damp,MC6,MC,NonProj,0.02,block1,12,33,10
59,4985,dancing,realize,realize,C,0.51,block1,13,33,11
59,5144,bmw,is_aware,is_aware,C,0.54,block1,14,33,12
59,5062,frisbee,learned,learned,C,0.54,block1,15,33,13
59,3896,yoga,MC5,MC,NonProj,0.01,block1,16,33,14
59,5022,nails,MC1,MC,NonProj,0.02,block1,17,33,15
59,6641,swing,MC4,MC,NonProj,0.02,block1,18,33,16
59,5728,tea,is_annoyed,is_annoyed,C,0.51,block1,19,33,17
59,5160,purple,saw,saw,C,0.51,block1,20,33,18
59,3669,garage,MC3,MC,NonProj,0.02,block1,21,33,19
59,3255,pool,MC7,MC,NonProj,0.01,block1,22,33,20
60,10294,frisbee,is_aware,is_aware,C,0.81,block1,3,21,1
60,4352,zoo,MC2,MC,NonProj,0.01,block1,4,21,2
60,4489,hat,MC4,MC,NonProj,0.02,block1,5,21,3
60,6999,purple,MC3,MC,NonProj,0,block1,6,21,4
60,6426,tea,found_out,found_out,C,0.72,block1,7,21,5
60,4398,ditch,MC6,MC,NonProj,0.01,block1,8,21,6
60,5129,poodle,is_amused,is_amused,C,0.8,block1,9,21,7
60,6398,yoga,MC1,MC,NonProj,0.01,block1,10,21,8
60,3921,horse,MC5,MC,NonProj,0.01,block1,11,21,9
60,6744,chili,revealed,revealed,C,0.81,block1,12,21,10
60,3722,nails,MC8,MC,NonProj,0,block1,13,21,11
60,6629,cupcakes,confessed,confessed,C,0.71,block1,14,21,12
60,4702,swing,discovered,discovered,C,0.78,block1,15,21,13
60,5377,bmw,established,established,C,0.78,block1,16,21,14
60,7285,poem,realize,realize,C,0.78,block1,17,21,15
60,6038,picture,is_annoyed,is_annoyed,C,0.78,block1,18,21,16
60,5331,pool,saw,saw,C,0.76,block1,19,21,17
60,4320,garage,MC7,MC,NonProj,0.02,block1,20,21,18
60,4369,damp,noticed,noticed,C,0.76,block1,21,21,19
60,4649,dancing,learned,learned,C,0.78,block1,22,21,20
61,7758,dancing,MC8,MC,NonProj,0,block1,3,27,1
61,7587,horse,MC3,MC,NonProj,0,block1,4,27,2
61,6817,damp,MC6,MC,NonProj,0.01,block1,5,27,3
61,6882,garage,MC7,MC,NonProj,0,block1,6,27,4
61,13096,chili,confessed,confessed,C,0.24,block1,7,27,5
61,4338,frisbee,MC1,MC,NonProj,0.03,block1,8,27,6
61,4971,nails,MC4,MC,NonProj,0,block1,9,27,7
61,9873,poodle,established,established,C,0,block1,10,27,8
61,12404,bmw,is_aware,is_aware,C,0.41,block1,11,27,9
61,8001,pool,MC2,MC,NonProj,0,block1,12,27,10
61,11800,tea,noticed,noticed,C,0.17,block1,13,27,11
61,9909,poem,learned,learned,C,0.43,block1,14,27,12
61,8710,cupcakes,is_amused,is_amused,C,0.54,block1,15,27,13
61,5471,purple,saw,saw,C,0.36,block1,16,27,14
61,7235,swing,discovered,discovered,C,0.33,block1,17,27,15
61,12164,zoo,revealed,revealed,C,0.1,block1,18,27,16
61,8792,ditch,MC5,MC,NonProj,0,block1,19,27,17
61,10950,picture,found_out,found_out,C,0.21,block1,20,27,18
61,10531,yoga,realize,realize,C,0.22,block1,21,27,19
61,6954,hat,is_annoyed,is_annoyed,C,0.5,block1,22,27,20
62,13318,poodle,MC2,MC,NonProj,0,block1,3,23,1
62,19987,purple,is_annoyed,is_annoyed,C,1,block1,4,23,2
62,9391,picture,MC8,MC,NonProj,0,block1,5,23,3
62,9006,chili,revealed,revealed,C,0,block1,6,23,4
62,6608,garage,MC7,MC,NonProj,0.03,block1,7,23,5
62,5104,horse,confessed,confessed,C,0,block1,8,23,6
62,6916,yoga,discovered,discovered,C,0,block1,9,23,7
62,9375,ditch,saw,saw,C,0,block1,10,23,8
62,3534,hat,MC5,MC,NonProj,0,block1,11,23,9
62,5194,tea,MC1,MC,NonProj,0,block1,12,23,10
62,4050,pool,MC4,MC,NonProj,0,block1,13,23,11
62,7591,swing,realize,realize,C,0,block1,14,23,12
62,7243,poem,noticed,noticed,C,0,block1,15,23,13
62,7320,damp,learned,learned,C,0,block1,16,23,14
62,4859,bmw,MC6,MC,NonProj,0,block1,17,23,15
62,7888,nails,is_aware,is_aware,C,0,block1,18,23,16
62,4737,cupcakes,is_amused,is_amused,C,0.03,block1,19,23,17
62,8027,frisbee,MC3,MC,NonProj,0,block1,20,23,18
62,6215,dancing,found_out,found_out,C,0.1,block1,21,23,19
62,3725,zoo,established,established,C,0.05,block1,22,23,20
63,20821,zoo,saw,saw,C,0.13,block1,3,27,1
63,11814,frisbee,is_annoyed,is_annoyed,C,0,block1,4,27,2
63,8164,swing,MC7,MC,NonProj,0,block1,5,27,3
63,8849,picture,MC5,MC,NonProj,0,block1,6,27,4
63,7589,chili,established,established,C,0.18,block1,7,27,5
63,7777,poem,MC3,MC,NonProj,0,block1,8,27,6
63,8085,poodle,noticed,noticed,C,0.29,block1,9,27,7
63,5920,yoga,MC4,MC,NonProj,0,block1,10,27,8
63,5042,garage,MC2,MC,NonProj,0,block1,11,27,9
63,9075,damp,MC8,MC,NonProj,0,block1,12,27,10
63,5841,hat,learned,learned,C,0,block1,13,27,11
63,12196,ditch,is_aware,is_aware,C,0.5,block1,14,27,12
63,13749,pool,realize,realize,C,0.12,block1,15,27,13
63,4886,tea,discovered,discovered,C,0.0600000000000001,block1,16,27,14
63,5452,purple,MC1,MC,NonProj,0.08,block1,17,27,15
63,4729,dancing,MC6,MC,NonProj,0.16,block1,18,27,16
63,8172,horse,found_out,found_out,C,0.23,block1,19,27,17
63,7580,cupcakes,revealed,revealed,C,0,block1,20,27,18
63,6664,bmw,confessed,confessed,C,0.14,block1,21,27,19
63,5390,nails,is_amused,is_amused,C,0.27,block1,22,27,20
64,11593,frisbee,is_aware,is_aware,C,0.79,block1,3,30,1
64,8686,picture,MC2,MC,NonProj,0.01,block1,4,30,2
64,20456,bmw,confessed,confessed,C,0.62,block1,5,30,3
64,5667,ditch,MC5,MC,NonProj,0.03,block1,6,30,4
64,8308,garage,found_out,found_out,C,0.64,block1,7,30,5
64,4265,hat,MC7,MC,NonProj,0.01,block1,8,30,6
64,6744,purple,saw,saw,C,0.7,block1,9,30,7
64,5942,tea,revealed,revealed,C,0.72,block1,10,30,8
64,6016,horse,MC8,MC,NonProj,0,block1,11,30,9
64,18556,zoo,MC3,MC,NonProj,0.01,block1,12,30,10
64,5146,poodle,MC1,MC,NonProj,0,block1,13,30,11
64,7803,poem,realize,realize,C,0.57,block1,14,30,12
64,3816,chili,discovered,discovered,C,0.67,block1,15,30,13
64,4353,cupcakes,MC6,MC,NonProj,0,block1,16,30,14
64,5514,damp,established,established,C,0.64,block1,17,30,15
64,3858,pool,is_amused,is_amused,C,0.6,block1,18,30,16
64,5732,dancing,MC4,MC,NonProj,0,block1,19,30,17
64,4826,nails,learned,learned,C,0.65,block1,20,30,18
64,4812,swing,is_annoyed,is_annoyed,C,0.76,block1,21,30,19
64,4192,yoga,noticed,noticed,C,0.67,block1,22,30,20
65,9465,bmw,realize,realize,C,0.99,block1,3,24,1
65,9357,dancing,discovered,discovered,C,0.98,block1,4,24,2
65,7241,zoo,is_amused,is_amused,C,0.99,block1,5,24,3
65,9232,poem,MC5,MC,NonProj,0,block1,6,24,4
65,5771,ditch,is_annoyed,is_annoyed,C,1,block1,7,24,5
65,12792,hat,revealed,revealed,C,0.81,block1,8,24,6
65,4574,nails,MC4,MC,NonProj,0.03,block1,9,24,7
65,5929,yoga,MC8,MC,NonProj,0.03,block1,10,24,8
65,3303,purple,MC2,MC,NonProj,0.02,block1,11,24,9
65,4881,cupcakes,MC7,MC,NonProj,0.04,block1,12,24,10
65,7729,poodle,confessed,confessed,C,0.97,block1,13,24,11
65,6285,chili,is_aware,is_aware,C,1,block1,14,24,12
65,6145,tea,found_out,found_out,C,0.99,block1,15,24,13
65,3597,horse,MC3,MC,NonProj,0.03,block1,16,24,14
65,8138,pool,noticed,noticed,C,0.97,block1,17,24,15
65,3879,garage,learned,learned,C,0.99,block1,18,24,16
65,27293,frisbee,saw,saw,C,0.98,block1,19,24,17
65,4279,swing,MC1,MC,NonProj,0.02,block1,20,24,18
65,6592,picture,established,established,C,0.99,block1,21,24,19
65,3842,damp,MC6,MC,NonProj,0.02,block1,22,24,20
67,19519,poem,realize,realize,C,0.75,block1,3,28,1
67,6803,ditch,MC3,MC,NonProj,0.05,block1,4,28,2
67,50178,bmw,found_out,found_out,C,0.7,block1,5,28,3
67,4501,damp,MC2,MC,NonProj,0.07,block1,6,28,4
67,5186,horse,discovered,discovered,C,1,block1,7,28,5
67,2861,dancing,MC7,MC,NonProj,0.0600000000000001,block1,8,28,6
67,3432,chili,learned,learned,C,0.83,block1,9,28,7
67,5811,nails,revealed,revealed,C,0.94,block1,10,28,8
67,3852,poodle,is_amused,is_amused,C,1,block1,11,28,9
67,3197,hat,MC1,MC,NonProj,0.04,block1,12,28,10
67,5596,pool,is_aware,is_aware,C,0.93,block1,13,28,11
67,3164,frisbee,MC4,MC,NonProj,0.03,block1,14,28,12
67,4224,picture,MC6,MC,NonProj,0.05,block1,15,28,13
67,2362,zoo,noticed,noticed,C,0.95,block1,16,28,14
67,3804,tea,is_annoyed,is_annoyed,C,0.92,block1,17,28,15
67,3156,swing,MC5,MC,NonProj,0.03,block1,18,28,16
67,2696,purple,confessed,confessed,C,0.95,block1,19,28,17
67,3013,cupcakes,MC8,MC,NonProj,0.0600000000000001,block1,20,28,18
67,4083,yoga,established,established,C,0.95,block1,21,28,19
67,2555,garage,saw,saw,C,0.91,block1,22,28,20
68,10772,dancing,MC1,MC,NonProj,0.01,block1,3,46,1
68,7240,hat,MC2,MC,NonProj,0.03,block1,4,46,2
68,23085,frisbee,established,established,C,0.2,block1,5,46,3
68,12819,swing,is_amused,is_amused,C,1,block1,6,46,4
68,18022,horse,noticed,noticed,C,0.33,block1,7,46,5
68,13370,nails,confessed,confessed,C,0.73,block1,8,46,6
68,9647,damp,MC3,MC,NonProj,0.02,block1,9,46,7
68,17329,purple,realize,realize,C,0.89,block1,10,46,8
68,11010,poem,is_aware,is_aware,C,0.99,block1,11,46,9
68,8307,cupcakes,MC6,MC,NonProj,0.01,block1,12,46,10
68,8319,pool,is_annoyed,is_annoyed,C,0.84,block1,13,46,11
68,6460,ditch,MC4,MC,NonProj,0.03,block1,14,46,12
68,19519,poodle,saw,saw,C,0.28,block1,15,46,13
68,18914,picture,found_out,found_out,C,0.15,block1,16,46,14
68,7501,zoo,MC8,MC,NonProj,0,block1,17,46,15
68,24156,yoga,discovered,discovered,C,0.34,block1,18,46,16
68,5103,tea,MC7,MC,NonProj,0.02,block1,19,46,17
68,4464,garage,MC5,MC,NonProj,0.01,block1,20,46,18
68,10993,chili,learned,learned,C,0.36,block1,21,46,19
68,11994,bmw,revealed,revealed,C,0.1,block1,22,46,20
69,28388,yoga,established,established,C,0,block1,3,44,1
69,12312,frisbee,MC8,MC,NonProj,0,block1,4,44,2
69,4416,purple,MC4,MC,NonProj,0.04,block1,5,44,3
69,13385,cupcakes,learned,learned,C,0.02,block1,6,44,4
69,11791,swing,is_annoyed,is_annoyed,C,1,block1,7,44,5
69,6969,chili,discovered,discovered,C,0.04,block1,8,44,6
69,4872,garage,MC6,MC,NonProj,0.04,block1,9,44,7
69,17063,ditch,found_out,found_out,C,0.51,block1,10,44,8
69,6887,tea,MC5,MC,NonProj,0.02,block1,11,44,9
69,10175,damp,saw,saw,C,0.25,block1,12,44,10
69,21927,pool,is_aware,is_aware,C,0.75,block1,13,44,11
69,13504,hat,confessed,confessed,C,0.78,block1,14,44,12
69,6984,poem,MC7,MC,NonProj,0.02,block1,15,44,13
69,5400,poodle,MC3,MC,NonProj,0.03,block1,16,44,14
69,13106,bmw,noticed,noticed,C,0.37,block1,17,44,15
69,7583,nails,is_amused,is_amused,C,0.99,block1,18,44,16
69,5960,zoo,MC1,MC,NonProj,0.05,block1,19,44,17
69,3632,horse,MC2,MC,NonProj,0.04,block1,20,44,18
69,10832,dancing,realize,realize,C,0.5,block1,21,44,19
69,10576,picture,revealed,revealed,C,0.5,block1,22,44,20
70,11495,swing,MC6,MC,NonProj,0.08,block1,3,54,1
70,10479,bmw,realize,realize,C,0.08,block1,4,54,2
70,10521,poodle,is_annoyed,is_annoyed,C,0.69,block1,5,54,3
70,9294,cupcakes,is_amused,is_amused,C,0.71,block1,6,54,4
70,6471,hat,saw,saw,C,0.71,block1,7,54,5
70,7144,purple,MC1,MC,NonProj,0.07,block1,8,54,6
70,4782,pool,MC5,MC,NonProj,0.08,block1,9,54,7
70,16161,yoga,MC3,MC,NonProj,0.0600000000000001,block1,10,54,8
70,12008,poem,established,established,C,0.6,block1,11,54,9
70,5199,picture,found_out,found_out,C,0.67,block1,12,54,10
70,15667,ditch,MC2,MC,NonProj,0.05,block1,13,54,11
70,5530,dancing,confessed,confessed,C,0.66,block1,14,54,12
70,3824,zoo,MC7,MC,NonProj,0.05,block1,15,54,13
70,6343,horse,MC4,MC,NonProj,0.05,block1,16,54,14
70,9287,damp,revealed,revealed,C,0.64,block1,17,54,15
70,8786,garage,MC8,MC,NonProj,0.05,block1,18,54,16
70,4685,chili,is_aware,is_aware,C,0.65,block1,19,54,17
70,17263,nails,noticed,noticed,C,0.6,block1,20,54,18
70,5767,frisbee,discovered,discovered,C,0.62,block1,21,54,19
70,4983,tea,learned,learned,C,0.62,block1,22,54,20
71,12198,yoga,is_amused,is_amused,C,0.8,block1,3,33,1
71,3674,ditch,MC2,MC,NonProj,0,block1,4,33,2
71,5110,dancing,MC8,MC,NonProj,0,block1,5,33,3
71,5071,zoo,established,established,C,0.92,block1,6,33,4
71,4779,poodle,MC5,MC,NonProj,0,block1,7,33,5
71,4121,pool,learned,learned,C,0.87,block1,8,33,6
71,2921,tea,MC4,MC,NonProj,0,block1,9,33,7
71,4138,purple,MC7,MC,NonProj,0,block1,10,33,8
71,5628,poem,discovered,discovered,C,0.87,block1,11,33,9
71,5354,hat,is_aware,is_aware,C,0.77,block1,12,33,10
71,3249,picture,found_out,found_out,C,0.8,block1,13,33,11
71,3158,swing,confessed,confessed,C,0.74,block1,14,33,12
71,2824,chili,MC1,MC,NonProj,0,block1,15,33,13
71,3027,frisbee,revealed,revealed,C,0.8,block1,16,33,14
71,2387,bmw,saw,saw,C,0.78,block1,17,33,15
71,2788,damp,MC6,MC,NonProj,0,block1,18,33,16
71,3531,horse,noticed,noticed,C,0.78,block1,19,33,17
71,41453,garage,is_annoyed,is_annoyed,C,0.89,block1,20,33,18
71,3559,nails,realize,realize,C,0.84,block1,21,33,19
71,2655,cupcakes,MC3,MC,NonProj,0,block1,22,33,20
72,7760,pool,discovered,discovered,C,0.07,block1,3,32,1
72,6191,chili,established,established,C,0.18,block1,4,32,2
72,3553,ditch,MC8,MC,NonProj,0.12,block1,5,32,3
72,3071,damp,MC5,MC,NonProj,0.14,block1,6,32,4
72,3448,frisbee,confessed,confessed,C,0.14,block1,7,32,5
72,4000,poodle,revealed,revealed,C,0.1,block1,8,32,6
72,3120,bmw,MC4,MC,NonProj,0.09,block1,9,32,7
72,7040,hat,MC6,MC,NonProj,0.12,block1,10,32,8
72,4752,tea,MC7,MC,NonProj,0.07,block1,11,32,9
72,6177,dancing,realize,realize,C,0.14,block1,12,32,10
72,2992,horse,saw,saw,C,0.15,block1,13,32,11
72,2823,nails,MC2,MC,NonProj,0.14,block1,14,32,12
72,2629,cupcakes,is_amused,is_amused,C,0.16,block1,15,32,13
72,1217,zoo,is_aware,is_aware,C,0.09,block1,16,32,14
72,742,garage,learned,learned,C,0.27,block1,17,32,15
72,1530,poem,MC3,MC,NonProj,0.22,block1,18,32,16
72,2168,yoga,is_annoyed,is_annoyed,C,0.08,block1,19,32,17
72,1296,purple,found_out,found_out,C,0.12,block1,20,32,18
72,1992,picture,noticed,noticed,C,0.17,block1,21,32,19
72,1480,swing,MC1,MC,NonProj,0.18,block1,22,32,20
73,12647,frisbee,is_amused,is_amused,C,1,block1,3,33,1
73,9943,cupcakes,MC3,MC,NonProj,0,block1,4,33,2
73,12919,swing,is_aware,is_aware,C,1,block1,5,33,3
73,7495,poodle,found_out,found_out,C,0.98,block1,6,33,4
73,8568,nails,is_annoyed,is_annoyed,C,1,block1,7,33,5
73,9023,tea,MC1,MC,NonProj,0,block1,8,33,6
73,10648,chili,learned,learned,C,1,block1,9,33,7
73,13543,damp,noticed,noticed,C,1,block1,10,33,8
73,7647,ditch,MC4,MC,NonProj,0,block1,11,33,9
73,5848,garage,MC7,MC,NonProj,0,block1,12,33,10
73,7032,yoga,MC6,MC,NonProj,0,block1,13,33,11
73,6104,pool,MC2,MC,NonProj,0,block1,14,33,12
73,9993,poem,saw,saw,C,1,block1,15,33,13
73,7959,horse,MC5,MC,NonProj,0,block1,16,33,14
73,11104,purple,established,established,C,1,block1,17,33,15
73,15112,picture,revealed,revealed,C,1,block1,18,33,16
73,12183,dancing,discovered,discovered,C,1,block1,19,33,17
73,21224,bmw,confessed,confessed,C,0.37,block1,20,33,18
73,16912,hat,realize,realize,C,0.48,block1,21,33,19
73,6055,zoo,MC8,MC,NonProj,0,block1,22,33,20
74,12246,yoga,is_aware,is_aware,C,0.05,block1,3,28,1
74,9855,purple,MC1,MC,NonProj,0.04,block1,4,28,2
74,8759,bmw,MC7,MC,NonProj,0.07,block1,5,28,3
74,19671,cupcakes,established,established,C,0.96,block1,6,28,4
74,10215,pool,is_amused,is_amused,C,0.95,block1,7,28,5
74,12991,garage,revealed,revealed,C,0.95,block1,8,28,6
74,7199,dancing,discovered,discovered,C,0.96,block1,9,28,7
74,7359,horse,noticed,noticed,C,0.94,block1,10,28,8
74,6687,poodle,confessed,confessed,C,0.96,block1,11,28,9
74,7903,poem,realize,realize,C,0.97,block1,12,28,10
74,9488,picture,is_annoyed,is_annoyed,C,0.98,block1,13,28,11
74,11207,swing,found_out,found_out,C,0.98,block1,14,28,12
74,6160,hat,MC5,MC,NonProj,0.02,block1,15,28,13
74,6176,chili,MC3,MC,NonProj,0.02,block1,16,28,14
74,5776,nails,MC4,MC,NonProj,0.03,block1,17,28,15
74,6007,zoo,learned,learned,C,0.97,block1,18,28,16
74,6864,ditch,saw,saw,C,0.98,block1,19,28,17
74,4616,frisbee,MC2,MC,NonProj,0.01,block1,20,28,18
74,4320,damp,MC6,MC,NonProj,0.02,block1,21,28,19
74,4327,tea,MC8,MC,NonProj,0.04,block1,22,28,20
75,22991,pool,MC2,MC,NonProj,0,block1,3,35,1
75,12940,chili,MC6,MC,NonProj,0.01,block1,4,35,2
75,22857,yoga,revealed,revealed,C,0.31,block1,5,35,3
75,27966,damp,discovered,discovered,C,0.03,block1,6,35,4
75,11755,poodle,found_out,found_out,C,0.49,block1,7,35,5
75,80087,hat,is_annoyed,is_annoyed,C,0.5,block1,8,35,6
75,33103,zoo,realize,realize,C,0.49,block1,9,35,7
75,24482,swing,MC4,MC,NonProj,0,block1,10,35,8
75,52034,purple,MC5,MC,NonProj,0,block1,11,35,9
75,9174,ditch,established,established,C,0.49,block1,12,35,10
75,16267,tea,noticed,noticed,C,0.51,block1,13,35,11
75,13323,frisbee,learned,learned,C,0.55,block1,14,35,12
75,27237,nails,MC3,MC,NonProj,0,block1,15,35,13
75,13253,picture,confessed,confessed,C,0.45,block1,16,35,14
75,33072,dancing,MC8,MC,NonProj,0,block1,17,35,15
75,8923,cupcakes,MC7,MC,NonProj,0,block1,18,35,16
75,55573,bmw,is_amused,is_amused,C,0.51,block1,19,35,17
75,25328,garage,MC1,MC,NonProj,0.02,block1,20,35,18
75,21754,poem,saw,saw,C,0.49,block1,21,35,19
75,61054,horse,is_aware,is_aware,C,0.54,block1,22,35,20
76,5472,chili,MC8,MC,NonProj,0.04,block1,3,25,1
76,11216,damp,noticed,noticed,C,0.87,block1,4,25,2
76,7433,yoga,MC3,MC,NonProj,0.02,block1,5,25,3
76,7619,nails,is_annoyed,is_annoyed,C,0.91,block1,6,25,4
76,6465,purple,found_out,found_out,C,0.95,block1,7,25,5
76,6984,dancing,realize,realize,C,0.95,block1,8,25,6
76,5916,tea,MC4,MC,NonProj,0.03,block1,9,25,7
76,15552,poem,confessed,confessed,C,0.87,block1,10,25,8
76,5786,swing,MC6,MC,NonProj,0.04,block1,11,25,9
76,11147,ditch,revealed,revealed,C,0.3,block1,12,25,10
76,9274,pool,is_amused,is_amused,C,0.87,block1,13,25,11
76,9832,bmw,established,established,C,0.46,block1,14,25,12
76,4100,poodle,MC1,MC,NonProj,0.04,block1,15,25,13
76,8318,frisbee,saw,saw,C,0.85,block1,16,25,14
76,6767,hat,discovered,discovered,C,0.85,block1,17,25,15
76,5768,picture,MC2,MC,NonProj,0,block1,18,25,16
76,5216,zoo,is_aware,is_aware,C,0.88,block1,19,25,17
76,3850,horse,MC5,MC,NonProj,0.03,block1,20,25,18
76,5698,garage,learned,learned,C,0.85,block1,21,25,19
76,5202,cupcakes,MC7,MC,NonProj,0.03,block1,22,25,20
77,22910,poem,is_amused,is_amused,C,0.62,block1,3,40,1
77,5463,ditch,MC5,MC,NonProj,0,block1,4,40,2
77,7488,yoga,is_annoyed,is_annoyed,C,0.91,block1,5,40,3
77,7887,tea,established,established,C,0.27,block1,6,40,4
77,3328,garage,MC1,MC,NonProj,0.02,block1,7,40,5
77,7065,bmw,noticed,noticed,C,0.25,block1,8,40,6
77,3039,dancing,MC6,MC,NonProj,0.03,block1,9,40,7
77,8273,picture,is_aware,is_aware,C,0.97,block1,10,40,8
77,8272,chili,found_out,found_out,C,0.19,block1,11,40,9
77,10271,pool,saw,saw,C,0.97,block1,12,40,10
77,5431,hat,MC3,MC,NonProj,0.02,block1,13,40,11
77,13552,zoo,discovered,discovered,C,0.9,block1,14,40,12
77,3623,frisbee,MC2,MC,NonProj,0.02,block1,15,40,13
77,10000,poodle,revealed,revealed,C,0.03,block1,16,40,14
77,2695,purple,MC4,MC,NonProj,0.03,block1,17,40,15
77,5368,horse,learned,learned,C,0.02,block1,18,40,16
77,8959,damp,confessed,confessed,C,0.02,block1,19,40,17
77,15049,nails,realize,realize,C,0.36,block1,20,40,18
77,3887,cupcakes,MC8,MC,NonProj,0.02,block1,21,40,19
77,3457,swing,MC7,MC,NonProj,0.02,block1,22,40,20
78,7504,poodle,established,established,C,0.96,block1,3,39,1
78,5950,chili,noticed,noticed,C,0.0600000000000001,block1,4,39,2
78,7376,swing,is_amused,is_amused,C,0.94,block1,5,39,3
78,4039,tea,MC3,MC,NonProj,0.05,block1,6,39,4
78,10286,frisbee,realize,realize,C,0.93,block1,7,39,5
78,4320,garage,MC6,MC,NonProj,0.04,block1,8,39,6
78,5035,bmw,saw,saw,C,0.95,block1,9,39,7
78,3328,dancing,MC8,MC,NonProj,0.01,block1,10,39,8
78,5903,poem,MC7,MC,NonProj,0.21,block1,11,39,9
78,4840,cupcakes,MC4,MC,NonProj,0.15,block1,12,39,10
78,4012,zoo,is_aware,is_aware,C,0.9,block1,13,39,11
78,5424,pool,found_out,found_out,C,0.93,block1,14,39,12
78,3541,nails,MC2,MC,NonProj,0.07,block1,15,39,13
78,7247,horse,confessed,confessed,C,0.92,block1,16,39,14
78,5652,purple,MC5,MC,NonProj,0.0600000000000001,block1,17,39,15
78,6242,picture,MC1,MC,NonProj,0.08,block1,18,39,16
78,11242,damp,is_annoyed,is_annoyed,C,0.9,block1,19,39,17
78,8460,hat,learned,learned,C,0.92,block1,20,39,18
78,5164,yoga,revealed,revealed,C,0.88,block1,21,39,19
78,5773,ditch,discovered,discovered,C,0.91,block1,22,39,20
79,5539,dancing,MC4,MC,NonProj,0.03,block1,3,25,1
79,11888,pool,established,established,C,0.87,block1,4,25,2
79,9755,chili,confessed,confessed,C,0.95,block1,5,25,3
79,6586,purple,is_amused,is_amused,C,0.91,block1,6,25,4
79,12700,garage,noticed,noticed,C,0.73,block1,7,25,5
79,8132,poem,is_annoyed,is_annoyed,C,0.92,block1,8,25,6
79,8517,cupcakes,MC7,MC,NonProj,0,block1,9,25,7
79,4873,hat,MC8,MC,NonProj,0.04,block1,10,25,8
79,6251,ditch,is_aware,is_aware,C,0.89,block1,11,25,9
79,4274,poodle,MC6,MC,NonProj,0.02,block1,12,25,10
79,5380,damp,MC3,MC,NonProj,0,block1,13,25,11
79,5892,frisbee,MC2,MC,NonProj,0.0600000000000001,block1,14,25,12
79,4344,zoo,MC5,MC,NonProj,0.01,block1,15,25,13
79,6121,bmw,found_out,found_out,C,0.93,block1,16,25,14
79,5951,yoga,revealed,revealed,C,0.94,block1,17,25,15
79,4094,tea,discovered,discovered,C,0.93,block1,18,25,16
79,6376,swing,learned,learned,C,0.91,block1,19,25,17
79,4933,horse,realize,realize,C,0.91,block1,20,25,18
79,5479,nails,saw,saw,C,0.9,block1,21,25,19
79,4693,picture,MC1,MC,NonProj,0,block1,22,25,20
80,12652,zoo,noticed,noticed,C,0.79,block1,3,25,1
80,8650,hat,established,established,C,0.77,block1,4,25,2
80,7715,horse,MC7,MC,NonProj,0.01,block1,5,25,3
80,7284,poem,confessed,confessed,C,0.8,block1,6,25,4
80,5418,damp,discovered,discovered,C,0.82,block1,7,25,5
80,4590,tea,revealed,revealed,C,0.82,block1,8,25,6
80,4572,garage,found_out,found_out,C,0.83,block1,9,25,7
80,8192,purple,is_annoyed,is_annoyed,C,0.85,block1,10,25,8
80,4420,bmw,MC1,MC,NonProj,0.02,block1,11,25,9
80,4073,chili,is_aware,is_aware,C,0.85,block1,12,25,10
80,4901,nails,MC5,MC,NonProj,0.01,block1,13,25,11
80,4093,cupcakes,MC8,MC,NonProj,0.01,block1,14,25,12
80,3774,pool,learned,learned,C,0.83,block1,15,25,13
80,5814,picture,MC6,MC,NonProj,0.02,block1,16,25,14
80,3768,swing,realize,realize,C,0.82,block1,17,25,15
80,3622,yoga,MC4,MC,NonProj,0.02,block1,18,25,16
80,5219,frisbee,saw,saw,C,0.84,block1,19,25,17
80,3715,dancing,MC2,MC,NonProj,0.02,block1,20,25,18
80,4865,ditch,is_amused,is_amused,C,0.87,block1,21,25,19
80,3623,poodle,MC3,MC,NonProj,0.01,block1,22,25,20
81,12760,frisbee,discovered,discovered,C,0.98,block1,3,34,1
81,6381,cupcakes,MC6,MC,NonProj,0,block1,4,34,2
81,5472,zoo,realize,realize,C,0.96,block1,5,34,3
81,5608,poem,MC2,MC,NonProj,0.01,block1,6,34,4
81,8479,bmw,is_aware,is_aware,C,1,block1,7,34,5
81,4752,pool,revealed,revealed,C,0.99,block1,8,34,6
81,4600,tea,MC4,MC,NonProj,0.02,block1,9,34,7
81,3735,chili,noticed,noticed,C,0.99,block1,10,34,8
81,4777,dancing,learned,learned,C,0.99,block1,11,34,9
81,4394,horse,is_annoyed,is_annoyed,C,0.97,block1,12,34,10
81,3246,purple,MC1,MC,NonProj,0.03,block1,13,34,11
81,2910,ditch,MC5,MC,NonProj,0.02,block1,14,34,12
81,4551,picture,MC8,MC,NonProj,0.01,block1,15,34,13
81,4848,hat,saw,saw,C,0.99,block1,16,34,14
81,5072,yoga,MC3,MC,NonProj,0,block1,17,34,15
81,4408,poodle,established,established,C,0.99,block1,18,34,16
81,8422,swing,MC7,MC,NonProj,0.03,block1,19,34,17
81,4017,damp,found_out,found_out,C,0.98,block1,20,34,18
81,3918,garage,is_amused,is_amused,C,0.99,block1,21,34,19
81,4487,nails,confessed,confessed,C,0.97,block1,22,34,20
82,5906,poem,MC1,MC,NonProj,0.99,block1,3,21,1
82,23783,cupcakes,established,established,C,0.25,block1,4,21,2
82,4727,hat,MC8,MC,NonProj,0.01,block1,5,21,3
82,12944,horse,is_amused,is_amused,C,0.74,block1,6,21,4
82,8872,poodle,confessed,confessed,C,0.16,block1,7,21,5
82,9784,purple,is_aware,is_aware,C,0.23,block1,8,21,6
82,7624,garage,found_out,found_out,C,0.16,block1,9,21,7
82,9040,bmw,revealed,revealed,C,0.2,block1,10,21,8
82,6463,dancing,realize,realize,C,0.26,block1,11,21,9
82,5343,zoo,MC6,MC,NonProj,0.02,block1,12,21,10
82,5808,tea,MC5,MC,NonProj,0.03,block1,13,21,11
82,5503,picture,saw,saw,C,0.54,block1,14,21,12
82,5207,yoga,MC2,MC,NonProj,0.04,block1,15,21,13
82,5096,frisbee,MC4,MC,NonProj,0.02,block1,16,21,14
82,5151,chili,noticed,noticed,C,0.63,block1,17,21,15
82,3808,ditch,discovered,discovered,C,0.59,block1,18,21,16
82,5184,pool,learned,learned,C,0.64,block1,19,21,17
82,5896,damp,is_annoyed,is_annoyed,C,0.74,block1,20,21,18
82,4992,swing,MC3,MC,NonProj,0.02,block1,21,21,19
82,3863,nails,MC7,MC,NonProj,0.02,block1,22,21,20
83,16415,cupcakes,is_aware,is_aware,C,1,block1,3,22,1
83,6359,ditch,MC5,MC,NonProj,0,block1,4,22,2
83,5624,picture,MC7,MC,NonProj,0,block1,5,22,3
83,8667,swing,MC8,MC,NonProj,0,block1,6,22,4
83,5465,poem,MC1,MC,NonProj,0,block1,7,22,5
83,6045,hat,learned,learned,C,1,block1,8,22,6
83,4373,zoo,noticed,noticed,C,1,block1,9,22,7
83,5303,pool,found_out,found_out,C,1,block1,10,22,8
83,4347,garage,saw,saw,C,1,block1,11,22,9
83,3240,poodle,MC2,MC,NonProj,0,block1,12,22,10
83,6010,tea,is_amused,is_amused,C,1,block1,13,22,11
83,3547,yoga,confessed,confessed,C,1,block1,14,22,12
83,8438,dancing,revealed,revealed,C,1,block1,15,22,13
83,2565,nails,discovered,discovered,C,1,block1,16,22,14
83,2682,damp,MC3,MC,NonProj,0,block1,17,22,15
83,3369,frisbee,established,established,C,1,block1,18,22,16
83,2800,purple,MC4,MC,NonProj,0,block1,19,22,17
83,5901,horse,realize,realize,C,1,block1,20,22,18
83,4250,chili,is_annoyed,is_annoyed,C,1,block1,21,22,19
83,3650,bmw,MC6,MC,NonProj,0,block1,22,22,20
84,8433,frisbee,MC2,MC,NonProj,0.09,block1,3,34,1
84,5684,swing,realize,realize,C,0.94,block1,4,34,2
84,5866,bmw,learned,learned,C,0.89,block1,5,34,3
84,3875,purple,is_amused,is_amused,C,0.94,block1,6,34,4
84,4286,yoga,is_aware,is_aware,C,0.89,block1,7,34,5
84,4062,poodle,revealed,revealed,C,0.96,block1,8,34,6
84,3211,hat,MC1,MC,NonProj,0.05,block1,9,34,7
84,4272,garage,saw,saw,C,0.95,block1,10,34,8
84,3902,cupcakes,found_out,found_out,C,0.92,block1,11,34,9
84,3518,dancing,MC8,MC,NonProj,0.07,block1,12,34,10
84,3879,nails,is_annoyed,is_annoyed,C,0.96,block1,13,34,11
84,3023,chili,MC7,MC,NonProj,0.08,block1,14,34,12
84,3482,poem,MC4,MC,NonProj,0.05,block1,15,34,13
84,3901,damp,noticed,noticed,C,0.94,block1,16,34,14
84,4651,picture,discovered,discovered,C,0.91,block1,17,34,15
84,4416,tea,confessed,confessed,C,1,block1,18,34,16
84,3038,zoo,MC3,MC,NonProj,0.04,block1,19,34,17
84,2723,ditch,MC6,MC,NonProj,0.04,block1,20,34,18
84,3979,horse,established,established,C,0.95,block1,21,34,19
84,4064,pool,MC5,MC,NonProj,0.0600000000000001,block1,22,34,20
85,8413,nails,learned,learned,C,0.05,block1,3,35,1
85,9032,chili,saw,saw,C,0.57,block1,4,35,2
85,12575,bmw,established,established,C,0.1,block1,5,35,3
85,5232,ditch,is_annoyed,is_annoyed,C,0.73,block1,6,35,4
85,9474,damp,revealed,revealed,C,0.82,block1,7,35,5
85,6809,swing,confessed,confessed,C,0.59,block1,8,35,6
85,4743,poodle,MC5,MC,NonProj,0,block1,9,35,7
85,6520,picture,discovered,discovered,C,0.31,block1,10,35,8
85,5985,tea,found_out,found_out,C,0.38,block1,11,35,9
85,3447,dancing,MC1,MC,NonProj,0,block1,12,35,10
85,5064,zoo,is_aware,is_aware,C,0.75,block1,13,35,11
85,6073,purple,noticed,noticed,C,0.87,block1,14,35,12
85,5127,horse,MC3,MC,NonProj,0,block1,15,35,13
85,4560,garage,realize,realize,C,0.83,block1,16,35,14
85,3711,frisbee,MC6,MC,NonProj,0,block1,17,35,15
85,4048,yoga,MC4,MC,NonProj,0,block1,18,35,16
85,11129,poem,is_amused,is_amused,C,0.72,block1,19,35,17
85,2903,pool,MC2,MC,NonProj,0,block1,20,35,18
85,2585,hat,MC8,MC,NonProj,0,block1,21,35,19
85,5519,cupcakes,MC7,MC,NonProj,0,block1,22,35,20
86,3460,poodle,confessed,confessed,C,0.05,block1,3,43,1
86,10719,nails,saw,saw,C,0.0600000000000001,block1,4,43,2
86,6703,purple,MC3,MC,NonProj,0,block1,5,43,3
86,5673,hat,learned,learned,C,0.02,block1,6,43,4
86,8703,picture,found_out,found_out,C,0.02,block1,7,43,5
86,4904,chili,MC1,MC,NonProj,0.04,block1,8,43,6
86,6230,poem,is_annoyed,is_annoyed,C,0.02,block1,9,43,7
86,18952,yoga,is_amused,is_amused,C,1,block1,10,43,8
86,12687,cupcakes,realize,realize,C,0.96,block1,11,43,9
86,5608,tea,MC7,MC,NonProj,0.05,block1,12,43,10
86,5928,dancing,revealed,revealed,C,0.98,block1,13,43,11
86,6031,swing,discovered,discovered,C,0.95,block1,14,43,12
86,3887,garage,MC6,MC,NonProj,0.03,block1,15,43,13
86,8392,frisbee,MC5,MC,NonProj,0.03,block1,16,43,14
86,3712,pool,MC4,MC,NonProj,0.03,block1,17,43,15
86,7104,bmw,MC2,MC,NonProj,0.03,block1,18,43,16
86,6424,zoo,MC8,MC,NonProj,0.02,block1,19,43,17
86,5360,ditch,is_aware,is_aware,C,0.98,block1,20,43,18
86,5071,damp,established,established,C,0.94,block1,21,43,19
86,5384,horse,noticed,noticed,C,0.98,block1,22,43,20
87,11875,purple,MC5,MC,NonProj,0,block1,3,59,1
87,22323,swing,discovered,discovered,C,0.99,block1,4,59,2
87,17601,hat,MC1,MC,NonProj,0,block1,5,59,3
87,10451,poodle,is_annoyed,is_annoyed,C,1,block1,6,59,4
87,10578,zoo,revealed,revealed,C,0.02,block1,7,59,5
87,23841,horse,MC2,MC,NonProj,0,block1,8,59,6
87,23896,pool,learned,learned,C,0.99,block1,9,59,7
87,6077,chili,MC6,MC,NonProj,0.01,block1,10,59,8
87,9812,dancing,established,established,C,0.04,block1,11,59,9
87,6992,poem,noticed,noticed,C,0.98,block1,12,59,10
87,10435,nails,found_out,found_out,C,0.98,block1,13,59,11
87,13478,yoga,is_aware,is_aware,C,0.99,block1,14,59,12
87,6027,garage,MC3,MC,NonProj,0.03,block1,15,59,13
87,10751,picture,saw,saw,C,0.98,block1,16,59,14
87,6675,frisbee,is_amused,is_amused,C,0.99,block1,17,59,15
87,16706,tea,MC4,MC,NonProj,0.02,block1,18,59,16
87,22262,ditch,confessed,confessed,C,0.98,block1,19,59,17
87,18239,bmw,realize,realize,C,0.97,block1,20,59,18
87,6295,cupcakes,MC7,MC,NonProj,0.02,block1,21,59,19
87,4785,damp,MC8,MC,NonProj,0.02,block1,22,59,20
88,18152,damp,confessed,confessed,C,0.03,block1,3,26,1
88,17265,zoo,discovered,discovered,C,0.02,block1,4,26,2
88,14171,pool,MC5,MC,NonProj,0.01,block1,5,26,3
88,10551,poem,MC4,MC,NonProj,0.01,block1,6,26,4
88,8505,chili,MC1,MC,NonProj,0.01,block1,7,26,5
88,15220,picture,saw,saw,C,0,block1,8,26,6
88,27634,dancing,is_amused,is_amused,C,0.79,block1,9,26,7
88,11018,cupcakes,MC3,MC,NonProj,0.01,block1,10,26,8
88,13164,purple,is_aware,is_aware,C,0.01,block1,11,26,9
88,38789,horse,realize,realize,C,0.32,block1,12,26,10
88,18455,poodle,established,established,C,0.01,block1,13,26,11
88,15659,ditch,is_annoyed,is_annoyed,C,0.18,block1,14,26,12
88,10365,hat,MC7,MC,NonProj,0,block1,15,26,13
88,8570,bmw,MC8,MC,NonProj,0.01,block1,16,26,14
88,10323,garage,MC2,MC,NonProj,0,block1,17,26,15
88,11280,swing,revealed,revealed,C,0.0600000000000001,block1,18,26,16
88,14468,nails,noticed,noticed,C,0.03,block1,19,26,17
88,11193,tea,found_out,found_out,C,0.03,block1,20,26,18
88,10109,yoga,learned,learned,C,0.04,block1,21,26,19
88,8259,frisbee,MC6,MC,NonProj,0.03,block1,22,26,20
89,30772,zoo,MC1,MC,NonProj,0,block1,3,28,1
89,14984,damp,MC6,MC,NonProj,0,block1,4,28,2
89,10642,purple,MC7,MC,NonProj,0,block1,5,28,3
89,14131,ditch,established,established,C,0.5,block1,6,28,4
89,5530,swing,MC8,MC,NonProj,0,block1,7,28,5
89,11792,frisbee,revealed,revealed,C,0.51,block1,8,28,6
89,6316,horse,found_out,found_out,C,0.52,block1,9,28,7
89,6146,bmw,MC4,MC,NonProj,0,block1,10,28,8
89,10673,poem,confessed,confessed,C,0.5,block1,11,28,9
89,5414,chili,MC2,MC,NonProj,0,block1,12,28,10
89,5196,hat,discovered,discovered,C,0.52,block1,13,28,11
89,5532,garage,noticed,noticed,C,0.5,block1,14,28,12
89,10628,cupcakes,is_annoyed,is_annoyed,C,1,block1,15,28,13
89,7921,tea,is_aware,is_aware,C,0.52,block1,16,28,14
89,5501,yoga,realize,realize,C,0.51,block1,17,28,15
89,3775,poodle,saw,saw,C,0.52,block1,18,28,16
89,4086,dancing,learned,learned,C,0.51,block1,19,28,17
89,4638,nails,MC3,MC,NonProj,0,block1,20,28,18
89,4312,pool,MC5,MC,NonProj,0,block1,21,28,19
89,4870,picture,is_amused,is_amused,C,0.51,block1,22,28,20
90,7069,zoo,discovered,discovered,C,0.04,block1,3,20,1
90,5372,nails,is_amused,is_amused,C,0.03,block1,4,20,2
90,7820,tea,is_annoyed,is_annoyed,C,0.98,block1,5,20,3
90,3796,dancing,MC7,MC,NonProj,0.03,block1,6,20,4
90,6690,garage,noticed,noticed,C,1,block1,7,20,5
90,6886,poodle,is_aware,is_aware,C,1,block1,8,20,6
90,2850,hat,MC5,MC,NonProj,0,block1,9,20,7
90,5340,picture,saw,saw,C,1,block1,10,20,8
90,3374,damp,MC6,MC,NonProj,0,block1,11,20,9
90,3729,bmw,MC1,MC,NonProj,0,block1,12,20,10
90,3520,frisbee,established,established,C,1,block1,13,20,11
90,3402,cupcakes,learned,learned,C,1,block1,14,20,12
90,2617,pool,MC8,MC,NonProj,0,block1,15,20,13
90,3110,swing,MC4,MC,NonProj,0,block1,16,20,14
90,2817,chili,MC3,MC,NonProj,0,block1,17,20,15
90,3766,yoga,realize,realize,C,1,block1,18,20,16
90,3691,purple,revealed,revealed,C,1,block1,19,20,17
90,3855,ditch,found_out,found_out,C,0.99,block1,20,20,18
90,2743,poem,confessed,confessed,C,0.99,block1,21,20,19
90,4056,horse,MC2,MC,NonProj,0,block1,22,20,20
91,6621,cupcakes,saw,saw,C,0.02,block1,3,26,1
91,4826,bmw,MC6,MC,NonProj,0,block1,4,26,2
91,6202,horse,learned,learned,C,0,block1,5,26,3
91,4330,chili,realize,realize,C,0,block1,6,26,4
91,4102,dancing,MC3,MC,NonProj,0,block1,7,26,5
91,5334,hat,is_aware,is_aware,C,0,block1,8,26,6
91,3844,purple,MC1,MC,NonProj,0.02,block1,9,26,7
91,4285,damp,MC2,MC,NonProj,0.02,block1,10,26,8
91,2809,ditch,is_annoyed,is_annoyed,C,0,block1,11,26,9
91,3873,yoga,is_amused,is_amused,C,0,block1,12,26,10
91,2064,pool,found_out,found_out,C,0,block1,13,26,11
91,3804,garage,MC4,MC,NonProj,0,block1,14,26,12
91,3298,swing,noticed,noticed,C,0,block1,15,26,13
91,2941,nails,discovered,discovered,C,0,block1,16,26,14
91,1952,poem,established,established,C,0.19,block1,17,26,15
91,1776,frisbee,MC7,MC,NonProj,0,block1,18,26,16
91,1624,tea,MC5,MC,NonProj,0,block1,19,26,17
91,5264,picture,revealed,revealed,C,0,block1,20,26,18
91,5684,zoo,confessed,confessed,C,1,block1,21,26,19
91,6213,poodle,MC8,MC,NonProj,0.04,block1,22,26,20
92,36739,cupcakes,is_amused,is_amused,C,0.82,block1,3,27,1
92,4087,ditch,MC4,MC,NonProj,0.04,block1,4,27,2
92,10977,frisbee,is_annoyed,is_annoyed,C,0.82,block1,5,27,3
92,4340,bmw,MC2,MC,NonProj,0.0600000000000001,block1,6,27,4
92,3821,chili,found_out,found_out,C,0.1,block1,7,27,5
92,7622,dancing,noticed,noticed,C,0.91,block1,8,27,6
92,3896,horse,MC1,MC,NonProj,0.09,block1,9,27,7
92,5291,yoga,revealed,revealed,C,0.89,block1,10,27,8
92,5736,picture,MC5,MC,NonProj,0.12,block1,11,27,9
92,4068,tea,MC3,MC,NonProj,0.14,block1,12,27,10
92,4431,swing,MC8,MC,NonProj,0.13,block1,13,27,11
92,5004,hat,learned,learned,C,0.89,block1,14,27,12
92,3262,garage,confessed,confessed,C,0.87,block1,15,27,13
92,6441,damp,realize,realize,C,0.8,block1,16,27,14
92,3814,purple,MC7,MC,NonProj,0.04,block1,17,27,15
92,3252,pool,saw,saw,C,0.89,block1,18,27,16
92,4218,zoo,established,established,C,0.9,block1,19,27,17
92,8204,nails,MC6,MC,NonProj,0.18,block1,20,27,18
92,3224,poodle,is_aware,is_aware,C,0.92,block1,21,27,19
92,4785,poem,discovered,discovered,C,0.79,block1,22,27,20
93,5721,chili,saw,saw,C,0.78,block1,3,32,1
93,5408,purple,realize,realize,C,0.85,block1,4,32,2
93,5950,swing,is_aware,is_aware,C,0.66,block1,5,32,3
93,5416,tea,learned,learned,C,0.77,block1,6,32,4
93,3184,garage,MC8,MC,NonProj,0.1,block1,7,32,5
93,2996,bmw,MC6,MC,NonProj,0.14,block1,8,32,6
93,2573,pool,MC2,MC,NonProj,0.0600000000000001,block1,9,32,7
93,2765,dancing,MC4,MC,NonProj,0.08,block1,10,32,8
93,2737,cupcakes,MC5,MC,NonProj,0.08,block1,11,32,9
93,2315,frisbee,discovered,discovered,C,0.8,block1,12,32,10
93,2852,zoo,is_amused,is_amused,C,0.95,block1,13,32,11
93,1846,poodle,MC1,MC,NonProj,0.04,block1,14,32,12
93,4408,damp,revealed,revealed,C,0.82,block1,15,32,13
93,4416,poem,noticed,noticed,C,0.81,block1,16,32,14
93,2203,nails,MC7,MC,NonProj,0.07,block1,17,32,15
93,5249,hat,is_annoyed,is_annoyed,C,0.9,block1,18,32,16
93,2335,yoga,found_out,found_out,C,0.94,block1,19,32,17
93,2184,horse,MC3,MC,NonProj,0.13,block1,20,32,18
93,4752,picture,established,established,C,0.8,block1,21,32,19
93,14960,ditch,confessed,confessed,C,0.94,block1,22,32,20
94,15930,chili,found_out,found_out,C,1,block1,3,29,1
94,7047,damp,saw,saw,C,1,block1,4,29,2
94,9222,cupcakes,MC5,MC,NonProj,0,block1,5,29,3
94,4495,frisbee,MC7,MC,NonProj,0.02,block1,6,29,4
94,7841,horse,MC6,MC,NonProj,0.02,block1,7,29,5
94,5127,poem,is_amused,is_amused,C,0.99,block1,8,29,6
94,5229,zoo,discovered,discovered,C,0.98,block1,9,29,7
94,6079,tea,MC2,MC,NonProj,0,block1,10,29,8
94,4367,ditch,MC8,MC,NonProj,0,block1,11,29,9
94,7942,garage,noticed,noticed,C,1,block1,12,29,10
94,3576,nails,MC1,MC,NonProj,0,block1,13,29,11
94,5457,yoga,MC4,MC,NonProj,0,block1,14,29,12
94,6096,picture,is_aware,is_aware,C,1,block1,15,29,13
94,4571,bmw,MC3,MC,NonProj,0,block1,16,29,14
94,8238,pool,learned,learned,C,1,block1,17,29,15
94,4782,swing,confessed,confessed,C,1,block1,18,29,16
94,5623,purple,revealed,revealed,C,1,block1,19,29,17
94,8069,dancing,is_annoyed,is_annoyed,C,1,block1,20,29,18
94,5111,hat,realize,realize,C,1,block1,21,29,19
94,5800,poodle,established,established,C,1,block1,22,29,20
95,33234,damp,is_aware,is_aware,C,0.69,block1,3,32,1
95,11048,poodle,confessed,confessed,C,0.22,block1,4,32,2
95,13088,poem,MC5,MC,NonProj,0.05,block1,5,32,3
95,10136,hat,MC3,MC,NonProj,0.03,block1,6,32,4
95,9784,frisbee,MC2,MC,NonProj,0.0600000000000001,block1,7,32,5
95,17880,garage,realize,realize,C,0.59,block1,8,32,6
95,17024,dancing,found_out,found_out,C,0.75,block1,9,32,7
95,8575,ditch,MC1,MC,NonProj,0.04,block1,10,32,8
95,7551,chili,is_annoyed,is_annoyed,C,0.82,block1,11,32,9
95,6312,yoga,MC7,MC,NonProj,0.05,block1,12,32,10
95,10872,cupcakes,revealed,revealed,C,0.73,block1,13,32,11
95,9344,nails,MC6,MC,NonProj,0.05,block1,14,32,12
95,18416,bmw,learned,learned,C,0.56,block1,15,32,13
95,15103,pool,noticed,noticed,C,0.6,block1,16,32,14
95,4264,horse,MC8,MC,NonProj,0.03,block1,17,32,15
95,10632,purple,established,established,C,0.61,block1,18,32,16
95,17824,picture,is_amused,is_amused,C,0.74,block1,19,32,17
95,10128,swing,saw,saw,C,0.67,block1,20,32,18
95,7096,tea,MC4,MC,NonProj,0.04,block1,21,32,19
95,10344,zoo,discovered,discovered,C,0.77,block1,22,32,20
96,22985,swing,is_aware,is_aware,C,0.14,block1,3,28,1
96,5138,yoga,MC5,MC,NonProj,0.01,block1,4,28,2
96,37438,nails,saw,saw,C,0.6,block1,5,28,3
96,5434,tea,MC6,MC,NonProj,0.02,block1,6,28,4
96,10428,poem,established,established,C,0.38,block1,7,28,5
96,10739,cupcakes,learned,learned,C,0.42,block1,8,28,6
96,27282,damp,MC8,MC,NonProj,0,block1,9,28,7
96,11894,poodle,is_amused,is_amused,C,0.49,block1,10,28,8
96,24461,ditch,is_annoyed,is_annoyed,C,0.21,block1,11,28,9
96,7098,chili,discovered,discovered,C,0.4,block1,12,28,10
96,4850,pool,realize,realize,C,0.59,block1,13,28,11
96,13562,horse,MC7,MC,NonProj,0,block1,14,28,12
96,3595,zoo,MC2,MC,NonProj,0.02,block1,15,28,13
96,5223,garage,MC1,MC,NonProj,0.02,block1,16,28,14
96,7744,bmw,confessed,confessed,C,0.74,block1,17,28,15
96,3252,hat,MC4,MC,NonProj,0.03,block1,18,28,16
96,5515,dancing,MC3,MC,NonProj,0.02,block1,19,28,17
96,5721,purple,found_out,found_out,C,0.03,block1,20,28,18
96,4881,frisbee,noticed,noticed,C,0.49,block1,21,28,19
96,6387,picture,revealed,revealed,C,0.31,block1,22,28,20
97,14614,frisbee,found_out,found_out,C,0.74,block1,3,22,1
97,3918,nails,MC8,MC,NonProj,0.2,block1,4,22,2
97,5222,garage,noticed,noticed,C,0.2,block1,5,22,3
97,3718,pool,MC1,MC,NonProj,0.17,block1,6,22,4
97,12860,zoo,established,established,C,0.23,block1,7,22,5
97,4692,cupcakes,MC6,MC,NonProj,0.21,block1,8,22,6
97,3573,yoga,MC2,MC,NonProj,0.25,block1,9,22,7
97,7779,purple,confessed,confessed,C,0.72,block1,10,22,8
97,6247,picture,saw,saw,C,0.72,block1,11,22,9
97,4406,dancing,MC7,MC,NonProj,0.22,block1,12,22,10
97,4394,chili,is_amused,is_amused,C,0.76,block1,13,22,11
97,4898,swing,MC3,MC,NonProj,0.22,block1,14,22,12
97,6865,damp,MC4,MC,NonProj,0.23,block1,15,22,13
97,3159,ditch,is_annoyed,is_annoyed,C,0.76,block1,16,22,14
97,2920,poem,MC5,MC,NonProj,0.2,block1,17,22,15
97,4566,tea,discovered,discovered,C,0.79,block1,18,22,16
97,3522,horse,revealed,revealed,C,0.79,block1,19,22,17
97,4607,bmw,is_aware,is_aware,C,0.79,block1,20,22,18
97,3525,poodle,realize,realize,C,0.74,block1,21,22,19
97,4663,hat,learned,learned,C,0.83,block1,22,22,20
98,8168,ditch,MC1,MC,NonProj,0.02,block1,3,24,1
98,27458,garage,confessed,confessed,C,0.94,block1,4,24,2
98,4909,pool,is_amused,is_amused,C,0.92,block1,5,24,3
98,6282,swing,is_aware,is_aware,C,0.07,block1,6,24,4
98,6078,cupcakes,noticed,noticed,C,0.03,block1,7,24,5
98,3243,dancing,MC6,MC,NonProj,0.03,block1,8,24,6
98,4688,poem,saw,saw,C,0.95,block1,9,24,7
98,3359,purple,is_annoyed,is_annoyed,C,0.97,block1,10,24,8
98,3524,yoga,discovered,discovered,C,0.95,block1,11,24,9
98,2758,poodle,revealed,revealed,C,0.97,block1,12,24,10
98,3043,bmw,MC4,MC,NonProj,0.02,block1,13,24,11
98,3169,frisbee,found_out,found_out,C,0.94,block1,14,24,12
98,4300,zoo,MC5,MC,NonProj,0.04,block1,15,24,13
98,3403,tea,learned,learned,C,0.96,block1,16,24,14
98,3387,picture,MC3,MC,NonProj,0.05,block1,17,24,15
98,3097,horse,established,established,C,0.94,block1,18,24,16
98,4121,hat,realize,realize,C,0.97,block1,19,24,17
98,2991,chili,MC2,MC,NonProj,0.02,block1,20,24,18
98,2637,nails,MC8,MC,NonProj,0.03,block1,21,24,19
98,3484,damp,MC7,MC,NonProj,0.04,block1,22,24,20
100,7415,poodle,MC8,MC,NonProj,0.02,block1,3,29,1
100,5975,frisbee,realize,realize,C,0.01,block1,4,29,2
100,2863,poem,learned,learned,C,0.01,block1,5,29,3
100,4567,dancing,is_amused,is_amused,C,1,block1,6,29,4
100,5680,purple,MC6,MC,NonProj,0.02,block1,7,29,5
100,7167,tea,revealed,revealed,C,0.96,block1,8,29,6
100,4719,chili,is_aware,is_aware,C,0.96,block1,9,29,7
100,8919,hat,established,established,C,0.96,block1,10,29,8
100,8120,picture,found_out,found_out,C,0.96,block1,11,29,9
100,4559,cupcakes,MC1,MC,NonProj,0.01,block1,12,29,10
100,3159,zoo,MC3,MC,NonProj,0.01,block1,13,29,11
100,1592,nails,MC5,MC,NonProj,0.01,block1,14,29,12
100,1592,horse,MC2,MC,NonProj,0.01,block1,15,29,13
100,5752,swing,saw,saw,C,0.97,block1,16,29,14
100,3039,ditch,confessed,confessed,C,0.98,block1,17,29,15
100,2447,bmw,discovered,discovered,C,0.97,block1,18,29,16
100,3247,yoga,is_annoyed,is_annoyed,C,0.97,block1,19,29,17
100,3552,damp,MC4,MC,NonProj,0.01,block1,20,29,18
100,1000,garage,MC7,MC,NonProj,0.01,block1,21,29,19
100,2048,pool,noticed,noticed,C,0.96,block1,22,29,20
101,10069,bmw,MC2,MC,NonProj,0.05,block1,3,34,1
101,6780,zoo,established,established,C,0.03,block1,4,34,2
101,6016,yoga,MC5,MC,NonProj,0.04,block1,5,34,3
101,5169,swing,MC7,MC,NonProj,0.03,block1,6,34,4
101,6779,damp,is_amused,is_amused,C,0.55,block1,7,34,5
101,12515,horse,realize,realize,C,0.89,block1,8,34,6
101,7021,pool,noticed,noticed,C,0.75,block1,9,34,7
101,6203,frisbee,found_out,found_out,C,0.98,block1,10,34,8
101,4474,tea,is_aware,is_aware,C,0.89,block1,11,34,9
101,5449,cupcakes,revealed,revealed,C,0.88,block1,12,34,10
101,45428,picture,confessed,confessed,C,1,block1,13,34,11
101,4000,purple,discovered,discovered,C,0.91,block1,14,34,12
101,3984,poodle,MC3,MC,NonProj,0.03,block1,15,34,13
101,3590,poem,learned,learned,C,0.87,block1,16,34,14
101,4563,chili,MC6,MC,NonProj,0.0600000000000001,block1,17,34,15
101,279764,dancing,saw,saw,C,0.86,block1,18,34,16
101,5865,hat,MC8,MC,NonProj,0.01,block1,19,34,17
101,3567,ditch,MC1,MC,NonProj,0.02,block1,20,34,18
101,3449,garage,MC4,MC,NonProj,0.02,block1,21,34,19
101,4759,nails,is_annoyed,is_annoyed,C,1,block1,22,34,20
102,17820,poem,learned,learned,C,0.69,block1,3,48,1
102,6520,nails,MC3,MC,NonProj,0,block1,4,48,2
102,9446,frisbee,noticed,noticed,C,0,block1,5,48,3
