workerid,rt,content,trigger,short_trigger,trigger_class,response,block,slide_number_in_experiment,age,trial
2,11839,boyfriend,NRRC,NRRC,B,0.95,block1,3,33,1
2,10256,kids,only,only,C,0.2,block1,4,33,2
2,9555,soccer,MC1,MC,NonProj,0.02,block1,5,33,3
2,3962,veggie,MC6,MC,NonProj,0.04,block1,6,33,4
2,7044,pizza,MC5,MC,NonProj,0.08,block1,7,33,5
2,9420,hat,know,know,C,0.81,block1,8,33,6
2,8017,aunt,MC2,MC,NonProj,0.17,block1,9,33,7
2,7488,muffins,MC3,MC,NonProj,0.08,block1,10,33,8
2,7288,nails,stop,stop,C,0.91,block1,11,33,9
2,7328,cupcakes,MC4,MC,NonProj,0.1,block1,12,33,10
2,6275,play,discover,discover,C,0.82,block1,13,33,11
2,4539,olives,annoyed,annoyed,C,0.87,block1,14,33,12
2,5558,stuntman,NomApp,NomApp,B,0.84,block1,15,33,13
2,4836,cheat,stupid,stupid,C,0.83,block1,16,33,14
2,8850,bmw,possNP,possNP,B,0.91,block1,17,33,15
3,6857,cheat,MC2,MC,NonProj,0,block1,3,35,1
3,5068,bmw,NomApp,NomApp,B,0.97,block1,4,35,2
3,5671,olives,MC6,MC,NonProj,0.02,block1,5,35,3
3,3960,boyfriend,NRRC,NRRC,B,0.98,block1,6,35,4
3,16544,cupcakes,MC5,MC,NonProj,0,block1,7,35,5
3,84019,kids,only,only,C,0,block1,8,35,6
3,2643,stuntman,stupid,stupid,C,0,block1,9,35,7
3,8624,aunt,possNP,possNP,B,0.96,block1,10,35,8
3,2983,veggie,MC3,MC,NonProj,0.11,block1,11,35,9
3,4694,play,stop,stop,C,0.99,block1,12,35,10
3,4796,pizza,annoyed,annoyed,C,0.94,block1,13,35,11
3,6904,nails,discover,discover,C,0.32,block1,14,35,12
3,1790,muffins,MC1,MC,NonProj,0.49,block1,15,35,13
3,3124,alcatraz,MC4,MC,NonProj,0.09,block1,16,35,14
3,4200,soccer,know,know,C,0.91,block1,17,35,15
4,10784,olives,MC4,MC,NonProj,0.02,block1,3,23,1
4,11087,play,discover,discover,C,0.98,block1,4,23,2
4,3781,boyfriend,MC3,MC,NonProj,0.01,block1,5,23,3
4,6532,veggie,NomApp,NomApp,B,0.98,block1,6,23,4
4,6219,kids,only,only,C,0.01,block1,7,23,5
4,6643,pizza,annoyed,annoyed,C,1,block1,8,23,6
4,8073,aunt,NRRC,NRRC,B,1,block1,9,23,7
4,4339,alcatraz,MC6,MC,NonProj,0.01,block1,10,23,8
4,9398,nails,stupid,stupid,C,0.99,block1,11,23,9
4,5693,muffins,MC5,MC,NonProj,0.01,block1,12,23,10
4,5484,bmw,possNP,possNP,B,0.98,block1,13,23,11
4,7623,ballet,stop,stop,C,0.99,block1,14,23,12
4,8029,cupcakes,know,know,C,0.99,block1,15,23,13
4,4850,hat,MC1,MC,NonProj,0,block1,16,23,14
4,3696,cheat,MC2,MC,NonProj,0.02,block1,17,23,15
5,12007,soccer,discover,discover,C,0.11,block1,3,55,1
5,4486,kids,MC1,MC,NonProj,0.18,block1,4,55,2
5,10606,nails,MC2,MC,NonProj,0.14,block1,5,55,3
5,5017,pizza,only,only,C,0.17,block1,6,55,4
5,3584,stuntman,NomApp,NomApp,B,0.18,block1,7,55,5
5,4096,play,stop,stop,C,0.13,block1,8,55,6
5,7283,cupcakes,MC6,MC,NonProj,0.09,block1,9,55,7
5,3508,bmw,possNP,possNP,B,0.07,block1,10,55,8
5,5142,alcatraz,MC3,MC,NonProj,0.13,block1,11,55,9
5,2954,boyfriend,MC4,MC,NonProj,0.16,block1,12,55,10
5,3492,ballet,MC5,MC,NonProj,0.14,block1,13,55,11
5,4556,olives,annoyed,annoyed,C,0.22,block1,14,55,12
5,7128,muffins,NRRC,NRRC,B,0.17,block1,15,55,13
5,1640,cheat,stupid,stupid,C,0.16,block1,16,55,14
5,3191,aunt,know,know,C,0.2,block1,17,55,15
6,12447,kids,MC6,MC,NonProj,0.03,block1,3,33,1
6,6562,stuntman,NomApp,NomApp,B,0.73,block1,4,33,2
6,5688,nails,MC2,MC,NonProj,0.01,block1,5,33,3
6,9161,muffins,NRRC,NRRC,B,0.77,block1,6,33,4
6,6599,aunt,possNP,possNP,B,0.82,block1,7,33,5
6,5831,bmw,annoyed,annoyed,C,0.89,block1,8,33,6
6,5757,alcatraz,MC3,MC,NonProj,0.02,block1,9,33,7
6,4994,hat,know,know,C,0.85,block1,10,33,8
6,8079,play,discover,discover,C,0.69,block1,11,33,9
6,5111,cupcakes,MC5,MC,NonProj,0.02,block1,12,33,10
6,5688,ballet,stop,stop,C,0.85,block1,13,33,11
6,6487,cheat,stupid,stupid,C,0.83,block1,14,33,12
6,7103,pizza,only,only,C,0.84,block1,15,33,13
6,5104,soccer,MC4,MC,NonProj,0,block1,16,33,14
6,5758,boyfriend,MC1,MC,NonProj,0.02,block1,17,33,15
7,10439,olives,annoyed,annoyed,C,0.97,block1,3,35,1
7,9256,play,discover,discover,C,0.99,block1,4,35,2
7,13794,cupcakes,NRRC,NRRC,B,0.97,block1,5,35,3
7,7451,stuntman,NomApp,NomApp,B,0.97,block1,6,35,4
7,6742,alcatraz,know,know,C,0.98,block1,7,35,5
7,5195,boyfriend,possNP,possNP,B,0.97,block1,8,35,6
7,13280,nails,MC6,MC,NonProj,0.04,block1,9,35,7
7,7522,cheat,stupid,stupid,C,0.97,block1,10,35,8
7,6585,hat,MC3,MC,NonProj,0.02,block1,11,35,9
7,6261,veggie,MC1,MC,NonProj,0.04,block1,12,35,10
7,7123,soccer,MC2,MC,NonProj,0.02,block1,13,35,11
7,10507,ballet,stop,stop,C,0.7,block1,14,35,12
7,15432,pizza,only,only,C,0.8,block1,15,35,13
7,8513,bmw,MC5,MC,NonProj,0,block1,16,35,14
7,9344,kids,MC4,MC,NonProj,0.02,block1,17,35,15
8,15977,boyfriend,NRRC,NRRC,B,0.99,block1,3,36,1
8,5496,cheat,MC5,MC,NonProj,0.05,block1,4,36,2
8,8104,kids,only,only,C,0.05,block1,5,36,3
8,12183,alcatraz,discover,discover,C,0.98,block1,6,36,4
8,4390,ballet,MC6,MC,NonProj,0.03,block1,7,36,5
8,6245,bmw,NomApp,NomApp,B,0.95,block1,8,36,6
8,13676,nails,stupid,stupid,C,0.04,block1,9,36,7
8,6503,play,stop,stop,C,0.98,block1,10,36,8
8,4856,veggie,MC2,MC,NonProj,0.03,block1,11,36,9
8,5824,soccer,MC4,MC,NonProj,0.05,block1,12,36,10
8,5263,olives,annoyed,annoyed,C,0.98,block1,13,36,11
8,37250,muffins,MC1,MC,NonProj,0.01,block1,14,36,12
8,10045,aunt,possNP,possNP,B,0.96,block1,15,36,13
8,8397,cupcakes,know,know,C,0.0600000000000001,block1,16,36,14
8,4509,hat,MC3,MC,NonProj,0.01,block1,17,36,15
9,14613,pizza,MC2,MC,NonProj,0,block1,3,25,1
9,5761,muffins,MC5,MC,NonProj,0,block1,4,25,2
9,13612,bmw,NomApp,NomApp,B,1,block1,5,25,3
9,10128,hat,annoyed,annoyed,C,0.83,block1,6,25,4
9,5546,cupcakes,MC3,MC,NonProj,0,block1,7,25,5
9,3971,cheat,MC4,MC,NonProj,0,block1,8,25,6
9,16182,ballet,stop,stop,C,0.83,block1,9,25,7
9,11916,stuntman,stupid,stupid,C,1,block1,10,25,8
9,10427,soccer,know,know,C,0.87,block1,11,25,9
9,11035,veggie,NRRC,NRRC,B,0.83,block1,12,25,10
9,11396,kids,only,only,C,0.75,block1,13,25,11
9,4516,aunt,MC1,MC,NonProj,0,block1,14,25,12
9,5402,boyfriend,possNP,possNP,B,1,block1,15,25,13
9,5477,alcatraz,MC6,MC,NonProj,0,block1,16,25,14
9,11586,nails,discover,discover,C,0.86,block1,17,25,15
10,12910,aunt,possNP,possNP,B,0.87,block1,3,35,1
10,6670,olives,MC6,MC,NonProj,0.01,block1,4,35,2
10,16434,soccer,annoyed,annoyed,C,0.51,block1,5,35,3
10,8577,play,stop,stop,C,0.81,block1,6,35,4
10,12384,nails,stupid,stupid,C,0.34,block1,7,35,5
10,19484,veggie,NRRC,NRRC,B,0.87,block1,8,35,6
10,9195,pizza,discover,discover,C,0.37,block1,9,35,7
10,8414,kids,MC3,MC,NonProj,0,block1,10,35,8
10,7336,cupcakes,MC4,MC,NonProj,0,block1,11,35,9
10,7477,bmw,NomApp,NomApp,B,0.6,block1,12,35,10
10,14334,hat,MC5,MC,NonProj,0,block1,13,35,11
10,6250,muffins,only,only,C,0,block1,14,35,12
10,11381,cheat,know,know,C,0.71,block1,15,35,13
10,4596,boyfriend,MC2,MC,NonProj,0,block1,16,35,14
10,3719,ballet,MC1,MC,NonProj,0,block1,17,35,15
11,6532,alcatraz,MC5,MC,NonProj,0,block1,3,27,1
11,3961,nails,stop,stop,C,0,block1,4,27,2
11,5232,hat,annoyed,annoyed,C,1,block1,5,27,3
11,4156,veggie,NomApp,NomApp,B,1,block1,6,27,4
11,2913,olives,MC1,MC,NonProj,0,block1,7,27,5
11,5612,cheat,stupid,stupid,C,1,block1,8,27,6
11,2496,cupcakes,MC2,MC,NonProj,0,block1,9,27,7
11,3361,bmw,know,know,C,0,block1,10,27,8
11,2728,stuntman,MC4,MC,NonProj,0,block1,11,27,9
11,4640,muffins,NRRC,NRRC,B,0,block1,12,27,10
11,3532,pizza,only,only,C,0,block1,13,27,11
11,4549,aunt,possNP,possNP,B,1,block1,14,27,12
11,3624,play,discover,discover,C,0,block1,15,27,13
11,2675,kids,MC3,MC,NonProj,0,block1,16,27,14
11,2800,soccer,MC6,MC,NonProj,0,block1,17,27,15
12,17143,veggie,MC2,MC,NonProj,0.01,block1,3,24,1
12,24514,pizza,discover,discover,C,0.22,block1,4,24,2
12,10309,nails,stop,stop,C,0.88,block1,5,24,3
12,7175,boyfriend,possNP,possNP,B,0.9,block1,6,24,4
12,9500,kids,only,only,C,0.68,block1,7,24,5
12,11526,aunt,NRRC,NRRC,B,0.67,block1,8,24,6
12,11830,soccer,annoyed,annoyed,C,0.4,block1,9,24,7
12,4493,alcatraz,MC6,MC,NonProj,0.03,block1,10,24,8
12,8965,bmw,NomApp,NomApp,B,0.86,block1,11,24,9
12,5976,play,MC3,MC,NonProj,0.0600000000000001,block1,12,24,10
12,7369,olives,MC4,MC,NonProj,0.04,block1,13,24,11
12,4386,cheat,know,know,C,0.05,block1,14,24,12
12,9263,cupcakes,MC1,MC,NonProj,0.02,block1,15,24,13
12,7470,stuntman,stupid,stupid,C,0.96,block1,16,24,14
12,5157,hat,MC5,MC,NonProj,0.05,block1,17,24,15
13,7997,olives,MC1,MC,NonProj,0.01,block1,3,24,1
13,2615,aunt,MC3,MC,NonProj,0.01,block1,4,24,2
13,11607,alcatraz,NRRC,NRRC,B,1,block1,5,24,3
13,8239,cupcakes,know,know,C,1,block1,6,24,4
13,71008,soccer,discover,discover,C,0.5,block1,7,24,5
13,5438,stuntman,stupid,stupid,C,0.5,block1,8,24,6
13,4591,cheat,MC6,MC,NonProj,0,block1,9,24,7
13,6543,nails,MC4,MC,NonProj,0,block1,10,24,8
13,7223,play,stop,stop,C,1,block1,11,24,9
13,5304,kids,only,only,C,0.78,block1,12,24,10
13,3455,veggie,MC5,MC,NonProj,0,block1,13,24,11
13,4863,boyfriend,possNP,possNP,B,1,block1,14,24,12
13,5111,ballet,NomApp,NomApp,B,0.98,block1,15,24,13
13,5336,pizza,annoyed,annoyed,C,0.52,block1,16,24,14
13,3406,hat,MC2,MC,NonProj,0,block1,17,24,15
14,29880,pizza,only,only,C,0.02,block1,3,51,1
14,5613,olives,MC1,MC,NonProj,0.08,block1,4,51,2
14,6439,muffins,MC3,MC,NonProj,0.09,block1,5,51,3
14,9104,bmw,NomApp,NomApp,B,0.95,block1,6,51,4
14,9016,stuntman,stupid,stupid,C,0.92,block1,7,51,5
14,6602,alcatraz,discover,discover,C,0.07,block1,8,51,6
14,8052,hat,annoyed,annoyed,C,0.98,block1,9,51,7
14,9929,play,stop,stop,C,0.95,block1,10,51,8
14,6231,soccer,MC6,MC,NonProj,0.09,block1,11,51,9
14,6183,cupcakes,MC4,MC,NonProj,0.03,block1,12,51,10
14,6931,nails,MC2,MC,NonProj,0.04,block1,13,51,11
14,7044,veggie,NRRC,NRRC,B,0.98,block1,14,51,12
14,16903,aunt,possNP,possNP,B,0.05,block1,15,51,13
14,9247,cheat,know,know,C,0.94,block1,16,51,14
14,9484,ballet,MC5,MC,NonProj,0.02,block1,17,51,15
15,10836,muffins,only,only,C,0,block1,3,22,1
15,23629,cupcakes,MC4,MC,NonProj,0.02,block1,4,22,2
15,7056,alcatraz,MC3,MC,NonProj,0,block1,5,22,3
15,14046,ballet,stop,stop,C,0,block1,6,22,4
15,17002,veggie,NomApp,NomApp,B,0.96,block1,7,22,5
15,12763,aunt,NRRC,NRRC,B,0.51,block1,8,22,6
15,9923,olives,MC5,MC,NonProj,0,block1,9,22,7
15,14763,bmw,possNP,possNP,B,0.75,block1,10,22,8
15,8883,kids,stupid,stupid,C,0.99,block1,11,22,9
15,17198,soccer,annoyed,annoyed,C,0.31,block1,12,22,10
15,11683,play,discover,discover,C,0.52,block1,13,22,11
15,10486,pizza,MC6,MC,NonProj,0,block1,14,22,12
15,6052,boyfriend,MC1,MC,NonProj,0.02,block1,15,22,13
15,21085,stuntman,MC2,MC,NonProj,0.0600000000000001,block1,16,22,14
15,10931,cheat,know,know,C,0.79,block1,17,22,15
16,11271,aunt,possNP,possNP,B,0.8,block1,3,29,1
16,13574,nails,stupid,stupid,C,0.25,block1,4,29,2
16,14989,pizza,MC5,MC,NonProj,0,block1,5,29,3
16,4179,cheat,MC4,MC,NonProj,0,block1,6,29,4
16,4829,ballet,MC1,MC,NonProj,0,block1,7,29,5
16,14857,play,stop,stop,C,0.73,block1,8,29,6
16,11278,veggie,NomApp,NomApp,B,0.77,block1,9,29,7
16,7478,alcatraz,discover,discover,C,0.54,block1,10,29,8
16,14759,hat,annoyed,annoyed,C,0.75,block1,11,29,9
16,4773,muffins,MC2,MC,NonProj,0,block1,12,29,10
16,5346,boyfriend,NRRC,NRRC,B,0.8,block1,13,29,11
16,7276,soccer,know,know,C,0.76,block1,14,29,12
16,3533,stuntman,MC6,MC,NonProj,0,block1,15,29,13
16,19376,kids,only,only,C,0.77,block1,16,29,14
16,4661,cupcakes,MC3,MC,NonProj,0,block1,17,29,15
17,7117,pizza,discover,discover,C,0.96,block1,3,35,1
17,3883,soccer,MC6,MC,NonProj,0.1,block1,4,35,2
17,4533,nails,MC2,MC,NonProj,0.14,block1,5,35,3
17,3276,veggie,MC5,MC,NonProj,0.08,block1,6,35,4
17,4426,stuntman,stupid,stupid,C,0.92,block1,7,35,5
17,3412,boyfriend,possNP,possNP,B,0.11,block1,8,35,6
17,4088,play,stop,stop,C,1,block1,9,35,7
17,4182,ballet,NomApp,NomApp,B,0.86,block1,10,35,8
17,4332,bmw,annoyed,annoyed,C,0.87,block1,11,35,9
17,3293,muffins,only,only,C,0.16,block1,12,35,10
17,3108,kids,MC1,MC,NonProj,0.18,block1,13,35,11
17,2229,cheat,know,know,C,0.1,block1,14,35,12
17,4664,cupcakes,NRRC,NRRC,B,0.81,block1,15,35,13
17,20904,olives,MC4,MC,NonProj,0.04,block1,16,35,14
17,3526,hat,MC3,MC,NonProj,0.04,block1,17,35,15
18,15912,soccer,MC3,MC,NonProj,0.04,block1,3,34,1
18,12821,cupcakes,NRRC,NRRC,B,0.95,block1,4,34,2
18,12395,muffins,only,only,C,0.31,block1,5,34,3
18,7633,nails,MC1,MC,NonProj,0.02,block1,6,34,4
18,8894,bmw,annoyed,annoyed,C,0.96,block1,7,34,5
18,9322,kids,stupid,stupid,C,0.96,block1,8,34,6
18,14903,play,know,know,C,0.75,block1,9,34,7
18,8931,ballet,stop,stop,C,0.81,block1,10,34,8
18,5567,alcatraz,MC6,MC,NonProj,0.02,block1,11,34,9
18,7573,veggie,NomApp,NomApp,B,0.92,block1,12,34,10
18,6827,hat,possNP,possNP,B,0.94,block1,13,34,11
18,14148,pizza,discover,discover,C,0.67,block1,14,34,12
18,7549,cheat,MC2,MC,NonProj,0.02,block1,15,34,13
18,7023,olives,MC4,MC,NonProj,0.02,block1,16,34,14
18,5911,boyfriend,MC5,MC,NonProj,0.03,block1,17,34,15
19,5985,olives,MC5,MC,NonProj,0.02,block1,3,21,1
19,4639,kids,MC1,MC,NonProj,0.01,block1,4,21,2
19,5207,stuntman,MC2,MC,NonProj,0.01,block1,5,21,3
19,6949,veggie,NomApp,NomApp,B,0.99,block1,6,21,4
19,3572,pizza,only,only,C,0,block1,7,21,5
19,8019,cheat,stupid,stupid,C,0.51,block1,8,21,6
19,8141,boyfriend,possNP,possNP,B,1,block1,9,21,7
19,4396,bmw,know,know,C,0.01,block1,10,21,8
19,3683,hat,MC4,MC,NonProj,0.02,block1,11,21,9
19,4986,play,MC3,MC,NonProj,0,block1,12,21,10
19,5220,cupcakes,NRRC,NRRC,B,0.99,block1,13,21,11
19,6491,soccer,annoyed,annoyed,C,0.98,block1,14,21,12
19,7491,ballet,stop,stop,C,0.48,block1,15,21,13
19,3945,muffins,MC6,MC,NonProj,0,block1,16,21,14
19,4349,alcatraz,discover,discover,C,0.02,block1,17,21,15
20,13170,muffins,MC4,MC,NonProj,0,block1,3,31,1
20,45060,cupcakes,NRRC,NRRC,B,0.33,block1,4,31,2
20,6483,hat,annoyed,annoyed,C,0.89,block1,5,31,3
20,6761,ballet,NomApp,NomApp,B,0.84,block1,6,31,4
20,7394,play,stop,stop,C,0.82,block1,7,31,5
20,4062,alcatraz,MC6,MC,NonProj,0.01,block1,8,31,6
20,11185,pizza,discover,discover,C,0,block1,9,31,7
20,5166,aunt,MC2,MC,NonProj,0.02,block1,10,31,8
20,6957,nails,MC3,MC,NonProj,0.01,block1,11,31,9
20,8385,veggie,MC5,MC,NonProj,0.02,block1,12,31,10
20,14835,bmw,possNP,possNP,B,0.89,block1,13,31,11
20,4951,olives,MC1,MC,NonProj,0,block1,14,31,12
20,4132,stuntman,stupid,stupid,C,0.97,block1,15,31,13
20,10860,cheat,know,know,C,0.77,block1,16,31,14
20,6406,kids,only,only,C,0.51,block1,17,31,15
21,10346,kids,stupid,stupid,C,0.85,block1,3,29,1
21,6096,bmw,know,know,C,0.94,block1,4,29,2
21,10167,cupcakes,NRRC,NRRC,B,0.94,block1,5,29,3
21,6276,stuntman,MC1,MC,NonProj,0,block1,6,29,4
21,3943,alcatraz,MC4,MC,NonProj,0,block1,7,29,5
21,4197,hat,annoyed,annoyed,C,0.98,block1,8,29,6
21,10948,ballet,stop,stop,C,0.21,block1,9,29,7
21,4229,pizza,only,only,C,0,block1,10,29,8
21,4215,cheat,MC5,MC,NonProj,0,block1,11,29,9
21,9476,nails,discover,discover,C,0.87,block1,12,29,10
21,4592,aunt,possNP,possNP,B,0.94,block1,13,29,11
21,6652,veggie,NomApp,NomApp,B,0.97,block1,14,29,12
21,5516,boyfriend,MC2,MC,NonProj,0,block1,15,29,13
21,3908,soccer,MC3,MC,NonProj,0,block1,16,29,14
21,4232,muffins,MC6,MC,NonProj,0.01,block1,17,29,15
22,27771,ballet,NomApp,NomApp,B,1,block1,3,28,1
22,7225,veggie,MC1,MC,NonProj,0,block1,4,28,2
22,6765,bmw,annoyed,annoyed,C,0,block1,5,28,3
22,9974,kids,only,only,C,0.02,block1,6,28,4
22,4548,boyfriend,MC4,MC,NonProj,0.02,block1,7,28,5
22,3710,pizza,MC2,MC,NonProj,0,block1,8,28,6
22,5187,hat,possNP,possNP,B,1,block1,9,28,7
22,6080,soccer,MC5,MC,NonProj,0.02,block1,10,28,8
22,3574,aunt,MC3,MC,NonProj,0,block1,11,28,9
22,12505,cheat,know,know,C,1,block1,12,28,10
22,8263,nails,stop,stop,C,1,block1,13,28,11
22,4455,muffins,MC6,MC,NonProj,0,block1,14,28,12
22,3534,play,discover,discover,C,0,block1,15,28,13
22,4374,alcatraz,NRRC,NRRC,B,1,block1,16,28,14
22,7573,stuntman,stupid,stupid,C,1,block1,17,28,15
23,17880,pizza,annoyed,annoyed,C,0.79,block1,3,32,1
23,8176,alcatraz,discover,discover,C,0.65,block1,4,32,2
23,7057,stuntman,NomApp,NomApp,B,0.73,block1,5,32,3
23,7776,hat,MC6,MC,NonProj,0.01,block1,6,32,4
23,6080,veggie,NRRC,NRRC,B,0.81,block1,7,32,5
23,7698,aunt,know,know,C,0.74,block1,8,32,6
23,9060,boyfriend,possNP,possNP,B,0.92,block1,9,32,7
23,8638,play,stop,stop,C,0.88,block1,10,32,8
23,4446,olives,MC4,MC,NonProj,0.02,block1,11,32,9
23,40683,kids,only,only,C,0.84,block1,12,32,10
23,5449,ballet,MC5,MC,NonProj,0.01,block1,13,32,11
23,53366,nails,stupid,stupid,C,0.58,block1,14,32,12
23,4580,muffins,MC3,MC,NonProj,0.02,block1,15,32,13
23,13936,cheat,MC1,MC,NonProj,0.01,block1,16,32,14
23,4760,cupcakes,MC2,MC,NonProj,0.03,block1,17,32,15
24,12744,stuntman,stupid,stupid,C,0.99,block1,3,51,1
24,5295,soccer,MC5,MC,NonProj,0.04,block1,4,51,2
24,8679,olives,annoyed,annoyed,C,0.97,block1,5,51,3
24,8501,aunt,possNP,possNP,B,0.99,block1,6,51,4
24,4603,muffins,MC1,MC,NonProj,0.02,block1,7,51,5
24,11879,nails,stop,stop,C,1,block1,8,51,6
24,6249,play,discover,discover,C,0,block1,9,51,7
24,24031,cheat,know,know,C,0.03,block1,10,51,8
24,11206,veggie,MC6,MC,NonProj,0.01,block1,11,51,9
24,14304,boyfriend,MC4,MC,NonProj,0,block1,12,51,10
24,9711,bmw,NomApp,NomApp,B,0.75,block1,13,51,11
24,5488,hat,MC3,MC,NonProj,0,block1,14,51,12
24,8303,pizza,only,only,C,0.02,block1,15,51,13
24,5968,ballet,MC2,MC,NonProj,0,block1,16,51,14
24,6752,cupcakes,NRRC,NRRC,B,1,block1,17,51,15
25,28756,alcatraz,MC4,MC,NonProj,0,block1,3,49,1
25,18046,ballet,MC3,MC,NonProj,0,block1,4,49,2
25,18552,muffins,NRRC,NRRC,B,0,block1,5,49,3
25,30031,stuntman,NomApp,NomApp,B,1,block1,6,49,4
25,11504,olives,MC2,MC,NonProj,0,block1,7,49,5
25,11422,aunt,MC5,MC,NonProj,0,block1,8,49,6
25,9955,soccer,discover,discover,C,0.04,block1,9,49,7
25,6161,boyfriend,possNP,possNP,B,0.98,block1,10,49,8
25,9366,kids,stupid,stupid,C,0.99,block1,11,49,9
25,9989,pizza,only,only,C,0.99,block1,12,49,10
25,13828,play,know,know,C,0.03,block1,13,49,11
25,10865,bmw,annoyed,annoyed,C,0.99,block1,14,49,12
25,8407,nails,stop,stop,C,0.98,block1,15,49,13
25,7562,cupcakes,MC1,MC,NonProj,0.01,block1,16,49,14
25,5332,veggie,MC6,MC,NonProj,0.03,block1,17,49,15
26,7669,nails,stupid,stupid,C,0.84,block1,3,26,1
26,17737,pizza,discover,discover,C,0.25,block1,4,26,2
26,11895,veggie,NomApp,NomApp,B,0.68,block1,5,26,3
26,4417,stuntman,MC6,MC,NonProj,0.07,block1,6,26,4
26,5675,hat,annoyed,annoyed,C,0.79,block1,7,26,5
26,9948,muffins,NRRC,NRRC,B,0.49,block1,8,26,6
26,4641,alcatraz,MC2,MC,NonProj,0.0600000000000001,block1,9,26,7
26,4114,bmw,possNP,possNP,B,0.85,block1,10,26,8
26,7675,kids,only,only,C,0.14,block1,11,26,9
26,4274,aunt,MC1,MC,NonProj,0.0600000000000001,block1,12,26,10
26,3810,soccer,MC5,MC,NonProj,0.09,block1,13,26,11
26,4017,olives,MC4,MC,NonProj,0.03,block1,14,26,12
26,3132,boyfriend,MC3,MC,NonProj,0.04,block1,15,26,13
26,5737,ballet,stop,stop,C,0.88,block1,16,26,14
26,6559,cupcakes,know,know,C,0.85,block1,17,26,15
27,24012,cheat,stupid,stupid,C,0.5,block1,3,55,1
27,10638,soccer,discover,discover,C,0,block1,4,55,2
27,17758,alcatraz,know,know,C,0.5,block1,5,55,3
27,11943,stuntman,MC4,MC,NonProj,0.03,block1,6,55,4
27,15759,nails,stop,stop,C,0.02,block1,7,55,5
27,7808,pizza,MC1,MC,NonProj,0.02,block1,8,55,6
27,7463,boyfriend,possNP,possNP,B,0.03,block1,9,55,7
27,5631,hat,MC3,MC,NonProj,0.02,block1,10,55,8
27,28190,veggie,NRRC,NRRC,B,0.51,block1,11,55,9
27,6984,bmw,MC2,MC,NonProj,0.04,block1,12,55,10
27,9511,kids,only,only,C,0.02,block1,13,55,11
27,8567,play,MC6,MC,NonProj,0.03,block1,14,55,12
27,9527,olives,annoyed,annoyed,C,0.51,block1,15,55,13
27,10375,ballet,NomApp,NomApp,B,0.53,block1,16,55,14
27,9151,aunt,MC5,MC,NonProj,0.04,block1,17,55,15
28,2262,muffins,only,only,C,0.3,block1,3,26,1
28,1199,veggie,NomApp,NomApp,B,0.25,block1,4,26,2
28,1537,aunt,possNP,possNP,B,0.59,block1,5,26,3
28,2175,soccer,NRRC,NRRC,B,0.28,block1,6,26,4
28,2199,bmw,annoyed,annoyed,C,0.29,block1,7,26,5
28,3312,stuntman,MC6,MC,NonProj,0.0600000000000001,block1,8,26,6
28,1872,kids,MC3,MC,NonProj,0.18,block1,9,26,7
28,2104,nails,stupid,stupid,C,0.16,block1,10,26,8
28,1192,alcatraz,MC4,MC,NonProj,0.39,block1,11,26,9
28,1128,boyfriend,MC2,MC,NonProj,0.3,block1,12,26,10
28,2513,ballet,stop,stop,C,0.21,block1,13,26,11
28,1728,cupcakes,know,know,C,0.65,block1,14,26,12
28,1263,play,discover,discover,C,0.38,block1,15,26,13
28,5031,pizza,MC1,MC,NonProj,0.05,block1,16,26,14
28,3400,hat,MC5,MC,NonProj,0.25,block1,17,26,15
29,11135,aunt,possNP,possNP,B,0.69,block1,3,50,1
29,7504,soccer,MC1,MC,NonProj,0.04,block1,4,50,2
29,8976,kids,only,only,C,0.18,block1,5,50,3
29,6704,cheat,MC4,MC,NonProj,0.0600000000000001,block1,6,50,4
29,9688,nails,stop,stop,C,0.59,block1,7,50,5
29,5512,olives,MC2,MC,NonProj,0.02,block1,8,50,6
29,9992,alcatraz,discover,discover,C,0.05,block1,9,50,7
29,10328,bmw,annoyed,annoyed,C,0.64,block1,10,50,8
29,8448,boyfriend,NRRC,NRRC,B,0.77,block1,11,50,9
29,10280,veggie,NomApp,NomApp,B,0.47,block1,12,50,10
29,6888,stuntman,stupid,stupid,C,0.65,block1,13,50,11
29,5224,muffins,MC6,MC,NonProj,0.02,block1,14,50,12
29,7136,ballet,MC3,MC,NonProj,0.03,block1,15,50,13
29,6360,cupcakes,MC5,MC,NonProj,0.03,block1,16,50,14
29,14048,play,know,know,C,0.83,block1,17,50,15
30,17170,soccer,annoyed,annoyed,C,0.76,block1,3,27,1
30,6101,boyfriend,possNP,possNP,B,0.79,block1,4,27,2
30,11732,kids,only,only,C,0.17,block1,5,27,3
30,5535,olives,MC2,MC,NonProj,0.01,block1,6,27,4
30,7922,veggie,MC5,MC,NonProj,0.03,block1,7,27,5
30,7186,cupcakes,MC1,MC,NonProj,0.02,block1,8,27,6
30,8307,stuntman,NomApp,NomApp,B,0.85,block1,9,27,7
30,10770,play,discover,discover,C,0.5,block1,10,27,8
30,13115,nails,stupid,stupid,C,0.43,block1,11,27,9
30,7211,muffins,NRRC,NRRC,B,0.7,block1,12,27,10
30,38180,aunt,MC3,MC,NonProj,0.03,block1,13,27,11
30,9868,ballet,stop,stop,C,0.97,block1,14,27,12
30,8548,alcatraz,MC4,MC,NonProj,0.03,block1,15,27,13
30,8441,pizza,MC6,MC,NonProj,0.04,block1,16,27,14
30,10508,cheat,know,know,C,0.47,block1,17,27,15
31,8535,kids,stupid,stupid,C,0.91,block1,3,27,1
31,4277,cheat,MC5,MC,NonProj,0.02,block1,4,27,2
31,5267,boyfriend,possNP,possNP,B,0.94,block1,5,27,3
31,5317,stuntman,NomApp,NomApp,B,0.98,block1,6,27,4
31,7804,soccer,discover,discover,C,0.25,block1,7,27,5
31,3995,pizza,MC1,MC,NonProj,0.02,block1,8,27,6
31,8309,veggie,NRRC,NRRC,B,0.92,block1,9,27,7
31,8294,olives,annoyed,annoyed,C,0.87,block1,10,27,8
31,5258,alcatraz,MC3,MC,NonProj,0,block1,11,27,9
31,4707,bmw,know,know,C,0.88,block1,12,27,10
31,3000,hat,MC6,MC,NonProj,0.01,block1,13,27,11
31,3995,aunt,MC2,MC,NonProj,0.02,block1,14,27,12
31,4314,nails,stop,stop,C,0,block1,15,27,13
31,8399,muffins,only,only,C,0.62,block1,16,27,14
31,4134,play,MC4,MC,NonProj,0.03,block1,17,27,15
32,19377,kids,only,only,C,0.81,block1,3,21,1
32,15984,pizza,discover,discover,C,0.32,block1,4,21,2
32,10153,soccer,know,know,C,0.92,block1,5,21,3
32,14155,nails,stop,stop,C,0.98,block1,6,21,4
32,20795,veggie,NomApp,NomApp,B,1,block1,7,21,5
32,19344,alcatraz,NRRC,NRRC,B,0.97,block1,8,21,6
32,8772,hat,MC4,MC,NonProj,0,block1,9,21,7
32,6592,muffins,MC1,MC,NonProj,0,block1,10,21,8
32,10674,cupcakes,MC2,MC,NonProj,0,block1,11,21,9
32,9077,aunt,possNP,possNP,B,0.89,block1,12,21,10
32,10530,boyfriend,MC6,MC,NonProj,0,block1,13,21,11
32,10305,stuntman,stupid,stupid,C,0.95,block1,14,21,12
32,8928,play,MC5,MC,NonProj,0,block1,15,21,13
32,8381,bmw,annoyed,annoyed,C,0.98,block1,16,21,14
32,12608,ballet,MC3,MC,NonProj,0,block1,17,21,15
33,9446,nails,MC2,MC,NonProj,0.03,block1,3,34,1
33,8819,pizza,discover,discover,C,0.77,block1,4,34,2
33,7206,cupcakes,know,know,C,0.91,block1,5,34,3
33,3836,soccer,MC4,MC,NonProj,0.02,block1,6,34,4
33,6575,hat,annoyed,annoyed,C,0.86,block1,7,34,5
33,5510,bmw,NomApp,NomApp,B,0.94,block1,8,34,6
33,4611,cheat,stupid,stupid,C,0.9,block1,9,34,7
33,4227,boyfriend,possNP,possNP,B,0.94,block1,10,34,8
33,6997,muffins,only,only,C,0.92,block1,11,34,9
33,3464,ballet,MC6,MC,NonProj,0.03,block1,12,34,10
33,4252,aunt,NRRC,NRRC,B,0.96,block1,13,34,11
33,4401,stuntman,MC3,MC,NonProj,0.01,block1,14,34,12
33,3775,kids,MC1,MC,NonProj,0.02,block1,15,34,13
33,4992,play,stop,stop,C,0.93,block1,16,34,14
33,3078,alcatraz,MC5,MC,NonProj,0.01,block1,17,34,15
34,11816,boyfriend,possNP,possNP,B,1,block1,3,40,1
34,5128,veggie,MC5,MC,NonProj,0.03,block1,4,40,2
34,5153,kids,stupid,stupid,C,1,block1,5,40,3
34,5639,bmw,MC1,MC,NonProj,0.02,block1,6,40,4
34,15549,aunt,NRRC,NRRC,B,0.99,block1,7,40,5
34,7325,soccer,annoyed,annoyed,C,0.84,block1,8,40,6
34,5873,ballet,MC6,MC,NonProj,0.02,block1,9,40,7
34,4092,cheat,MC2,MC,NonProj,0.02,block1,10,40,8
34,8585,pizza,only,only,C,0.8,block1,11,40,9
34,6830,play,stop,stop,C,0.99,block1,12,40,10
34,7067,muffins,MC3,MC,NonProj,0.02,block1,13,40,11
34,4867,olives,MC4,MC,NonProj,0.03,block1,14,40,12
34,5966,alcatraz,discover,discover,C,0.81,block1,15,40,13
34,11170,cupcakes,know,know,C,0.77,block1,16,40,14
34,4669,stuntman,NomApp,NomApp,B,0.98,block1,17,40,15
35,7516,veggie,MC6,MC,NonProj,0.02,block1,3,25,1
35,7964,boyfriend,possNP,possNP,B,0.98,block1,4,25,2
35,8584,kids,MC3,MC,NonProj,0.03,block1,5,25,3
35,5076,stuntman,stupid,stupid,C,0.97,block1,6,25,4
35,4048,aunt,MC2,MC,NonProj,0,block1,7,25,5
35,12712,hat,annoyed,annoyed,C,0.94,block1,8,25,6
35,8978,cupcakes,NRRC,NRRC,B,0.69,block1,9,25,7
35,4871,muffins,MC5,MC,NonProj,0.02,block1,10,25,8
35,6693,soccer,discover,discover,C,0.67,block1,11,25,9
35,5744,pizza,only,only,C,0,block1,12,25,10
35,13925,nails,stop,stop,C,0.98,block1,13,25,11
35,6712,bmw,know,know,C,0.9,block1,14,25,12
35,6607,ballet,NomApp,NomApp,B,0.88,block1,15,25,13
35,4705,olives,MC1,MC,NonProj,0,block1,16,25,14
35,5937,play,MC4,MC,NonProj,0,block1,17,25,15
36,25065,muffins,MC3,MC,NonProj,0.01,block1,3,34,1
36,9187,bmw,MC2,MC,NonProj,0.03,block1,4,34,2
36,11964,stuntman,MC1,MC,NonProj,0.01,block1,5,34,3
36,21591,soccer,annoyed,annoyed,C,0.01,block1,6,34,4
36,6039,cheat,stupid,stupid,C,0.01,block1,7,34,5
36,15778,pizza,only,only,C,0.02,block1,8,34,6
36,12022,veggie,NomApp,NomApp,B,0.99,block1,9,34,7
36,7657,olives,MC5,MC,NonProj,0.02,block1,10,34,8
36,13348,ballet,stop,stop,C,0.98,block1,11,34,9
36,10204,kids,MC6,MC,NonProj,0,block1,12,34,10
36,11703,cupcakes,NRRC,NRRC,B,0.97,block1,13,34,11
36,9948,play,discover,discover,C,0.01,block1,14,34,12
36,9161,alcatraz,know,know,C,0.03,block1,15,34,13
36,13416,nails,MC4,MC,NonProj,0.01,block1,16,34,14
36,11870,hat,possNP,possNP,B,0.99,block1,17,34,15
38,15071,cupcakes,MC4,MC,NonProj,0.17,block1,3,40,1
38,8454,stuntman,MC2,MC,NonProj,0.2,block1,4,40,2
38,10879,pizza,discover,discover,C,0.63,block1,5,40,3
38,7104,veggie,MC5,MC,NonProj,0.08,block1,6,40,4
38,6736,boyfriend,MC3,MC,NonProj,0.1,block1,7,40,5
38,6208,play,stop,stop,C,0.72,block1,8,40,6
38,6704,alcatraz,MC1,MC,NonProj,0.09,block1,9,40,7
38,9456,kids,only,only,C,0.88,block1,10,40,8
38,5752,nails,stupid,stupid,C,0.8,block1,11,40,9
38,10232,aunt,NRRC,NRRC,B,0.77,block1,12,40,10
38,4288,bmw,possNP,possNP,B,0.83,block1,13,40,11
38,5504,ballet,NomApp,NomApp,B,0.82,block1,14,40,12
38,4256,olives,MC6,MC,NonProj,0.07,block1,15,40,13
38,3800,hat,annoyed,annoyed,C,0.85,block1,16,40,14
38,6272,soccer,know,know,C,0.83,block1,17,40,15
39,9464,cheat,MC1,MC,NonProj,0,block1,3,26,1
39,10535,alcatraz,MC4,MC,NonProj,0,block1,4,26,2
39,6407,stuntman,MC6,MC,NonProj,0.02,block1,5,26,3
39,16904,muffins,only,only,C,0.64,block1,6,26,4
39,30015,play,stop,stop,C,1,block1,7,26,5
39,4936,pizza,MC5,MC,NonProj,0,block1,8,26,6
39,17143,cupcakes,NRRC,NRRC,B,0.84,block1,9,26,7
39,12766,bmw,NomApp,NomApp,B,0.98,block1,10,26,8
39,5681,ballet,MC3,MC,NonProj,0.01,block1,11,26,9
39,5230,olives,MC2,MC,NonProj,0.01,block1,12,26,10
39,5056,boyfriend,possNP,possNP,B,0.98,block1,13,26,11
39,10808,aunt,know,know,C,0.97,block1,14,26,12
39,4856,hat,annoyed,annoyed,C,0.99,block1,15,26,13
39,50544,nails,discover,discover,C,0.27,block1,16,26,14
39,36142,kids,stupid,stupid,C,0.66,block1,17,26,15
40,10439,play,stop,stop,C,0.94,block1,3,26,1
40,11580,cheat,MC1,MC,NonProj,0.01,block1,4,26,2
40,9249,bmw,annoyed,annoyed,C,0.89,block1,5,26,3
40,3584,alcatraz,MC4,MC,NonProj,0.08,block1,6,26,4
40,4734,soccer,MC3,MC,NonProj,0.05,block1,7,26,5
40,5519,veggie,NomApp,NomApp,B,0.92,block1,8,26,6
40,10156,cupcakes,NRRC,NRRC,B,0.78,block1,9,26,7
40,6800,ballet,MC5,MC,NonProj,0.02,block1,10,26,8
40,5250,hat,possNP,possNP,B,0.88,block1,11,26,9
40,4598,aunt,know,know,C,0.07,block1,12,26,10
40,7604,pizza,discover,discover,C,0.08,block1,13,26,11
40,3066,stuntman,MC2,MC,NonProj,0.01,block1,14,26,12
40,6338,muffins,only,only,C,0.56,block1,15,26,13
40,5855,nails,stupid,stupid,C,0.41,block1,16,26,14
40,4298,kids,MC6,MC,NonProj,0.0600000000000001,block1,17,26,15
41,13916,boyfriend,MC6,MC,NonProj,0.02,block1,3,34,1
41,7480,hat,MC1,MC,NonProj,0.01,block1,4,34,2
41,79937,olives,MC3,MC,NonProj,0.02,block1,5,34,3
41,10751,cheat,MC4,MC,NonProj,0.02,block1,6,34,4
41,13575,soccer,annoyed,annoyed,C,0.85,block1,7,34,5
41,14383,bmw,possNP,possNP,B,0.77,block1,8,34,6
41,6647,ballet,stop,stop,C,0.99,block1,9,34,7
41,12791,alcatraz,know,know,C,0.85,block1,10,34,8
41,11232,kids,stupid,stupid,C,0.83,block1,11,34,9
41,18831,muffins,only,only,C,0.74,block1,12,34,10
41,10967,stuntman,NomApp,NomApp,B,0.87,block1,13,34,11
41,45663,nails,discover,discover,C,0.69,block1,14,34,12
41,15614,play,MC2,MC,NonProj,0.04,block1,15,34,13
41,32520,aunt,NRRC,NRRC,B,0.78,block1,16,34,14
41,12999,veggie,MC5,MC,NonProj,0.03,block1,17,34,15
42,6310,aunt,know,know,C,0,block1,3,29,1
42,4610,ballet,NomApp,NomApp,B,1,block1,4,29,2
42,5604,kids,stupid,stupid,C,0.64,block1,5,29,3
42,5779,muffins,only,only,C,0.16,block1,6,29,4
42,3882,hat,MC5,MC,NonProj,0,block1,7,29,5
42,3570,cheat,MC6,MC,NonProj,0,block1,8,29,6
42,3153,pizza,MC4,MC,NonProj,0,block1,9,29,7
42,5126,cupcakes,MC2,MC,NonProj,0,block1,10,29,8
42,4719,stuntman,MC1,MC,NonProj,0,block1,11,29,9
42,6437,bmw,annoyed,annoyed,C,1,block1,12,29,10
42,4837,nails,stop,stop,C,1,block1,13,29,11
42,3439,soccer,discover,discover,C,0,block1,14,29,12
42,5289,play,MC3,MC,NonProj,0,block1,15,29,13
42,11075,veggie,NRRC,NRRC,B,1,block1,16,29,14
42,3371,boyfriend,possNP,possNP,B,1,block1,17,29,15
43,9105,boyfriend,MC5,MC,NonProj,0,block1,3,21,1
43,14724,muffins,only,only,C,0.09,block1,4,21,2
43,6115,bmw,MC1,MC,NonProj,0,block1,5,21,3
43,6882,kids,MC2,MC,NonProj,0,block1,6,21,4
43,6092,stuntman,NomApp,NomApp,B,0.81,block1,7,21,5
43,4084,cheat,MC3,MC,NonProj,0.07,block1,8,21,6
43,6402,cupcakes,MC6,MC,NonProj,0,block1,9,21,7
43,11683,pizza,discover,discover,C,0.21,block1,10,21,8
43,8370,alcatraz,NRRC,NRRC,B,0.73,block1,11,21,9
43,5238,veggie,MC4,MC,NonProj,0.04,block1,12,21,10
43,6470,hat,possNP,possNP,B,0.78,block1,13,21,11
43,9117,nails,stupid,stupid,C,0.63,block1,14,21,12
43,11051,play,stop,stop,C,0.79,block1,15,21,13
43,9104,olives,annoyed,annoyed,C,0.87,block1,16,21,14
43,6500,soccer,know,know,C,0.97,block1,17,21,15
44,12731,pizza,discover,discover,C,0,block1,3,37,1
44,5191,play,MC2,MC,NonProj,0,block1,4,37,2
44,4040,alcatraz,NRRC,NRRC,B,0,block1,5,37,3
44,4567,stuntman,MC3,MC,NonProj,0,block1,6,37,4
44,12375,kids,only,only,C,1,block1,7,37,5
44,6360,bmw,possNP,possNP,B,1,block1,8,37,6
44,5527,nails,stop,stop,C,0,block1,9,37,7
44,5479,cupcakes,MC4,MC,NonProj,0,block1,10,37,8
44,3671,soccer,MC6,MC,NonProj,0,block1,11,37,9
44,10472,aunt,know,know,C,1,block1,12,37,10
44,13023,hat,annoyed,annoyed,C,1,block1,13,37,11
44,8648,muffins,MC1,MC,NonProj,0,block1,14,37,12
44,3608,ballet,MC5,MC,NonProj,0,block1,15,37,13
44,5190,cheat,stupid,stupid,C,1,block1,16,37,14
44,9399,veggie,NomApp,NomApp,B,1,block1,17,37,15
45,4918,boyfriend,MC4,MC,NonProj,0.04,block1,3,35,1
45,5549,bmw,NomApp,NomApp,B,0.87,block1,4,35,2
45,3971,kids,MC2,MC,NonProj,0.03,block1,5,35,3
45,4592,stuntman,stupid,stupid,C,0.97,block1,6,35,4
45,8696,soccer,discover,discover,C,0.02,block1,7,35,5
45,12213,alcatraz,NRRC,NRRC,B,0.74,block1,8,35,6
45,3730,cupcakes,MC3,MC,NonProj,0.07,block1,9,35,7
45,9195,play,stop,stop,C,0.94,block1,10,35,8
45,6463,pizza,annoyed,annoyed,C,0.86,block1,11,35,9
45,3752,ballet,MC5,MC,NonProj,0.12,block1,12,35,10
45,9192,nails,MC6,MC,NonProj,0.09,block1,13,35,11
45,5080,hat,possNP,possNP,B,0.96,block1,14,35,12
45,4414,muffins,only,only,C,0.07,block1,15,35,13
45,38087,aunt,know,know,C,0.63,block1,16,35,14
45,6550,cheat,MC1,MC,NonProj,0.08,block1,17,35,15
46,13648,soccer,MC6,MC,NonProj,0.01,block1,3,48,1
46,18867,olives,annoyed,annoyed,C,0.93,block1,4,48,2
46,7476,veggie,NomApp,NomApp,B,0.9,block1,5,48,3
46,7036,muffins,NRRC,NRRC,B,0.94,block1,6,48,4
46,5128,cupcakes,MC2,MC,NonProj,0,block1,7,48,5
46,4164,boyfriend,MC3,MC,NonProj,0.03,block1,8,48,6
46,8588,play,discover,discover,C,0.02,block1,9,48,7
46,6528,bmw,possNP,possNP,B,0.97,block1,10,48,8
46,9748,cheat,stupid,stupid,C,0.94,block1,11,48,9
46,5522,aunt,MC5,MC,NonProj,0.02,block1,12,48,10
46,6259,alcatraz,know,know,C,0.03,block1,13,48,11
46,4632,pizza,MC1,MC,NonProj,0.02,block1,14,48,12
46,6844,kids,only,only,C,0.01,block1,15,48,13
46,6554,stuntman,MC4,MC,NonProj,0.01,block1,16,48,14
46,7012,nails,stop,stop,C,1,block1,17,48,15
47,11013,kids,MC5,MC,NonProj,0,block1,3,20,1
47,6710,ballet,stop,stop,C,0.23,block1,4,20,2
47,7400,pizza,only,only,C,0.29,block1,5,20,3
47,9027,alcatraz,discover,discover,C,0.34,block1,6,20,4
47,5932,muffins,MC4,MC,NonProj,0,block1,7,20,5
47,5217,cupcakes,NRRC,NRRC,B,0.77,block1,8,20,6
47,4634,nails,MC6,MC,NonProj,0,block1,9,20,7
47,6079,olives,MC1,MC,NonProj,0,block1,10,20,8
47,4670,aunt,know,know,C,0.65,block1,11,20,9
47,5873,soccer,annoyed,annoyed,C,0,block1,12,20,10
47,4186,stuntman,MC2,MC,NonProj,0,block1,13,20,11
47,5713,cheat,stupid,stupid,C,0.47,block1,14,20,12
47,4150,boyfriend,MC3,MC,NonProj,0,block1,15,20,13
47,7205,veggie,NomApp,NomApp,B,0.82,block1,16,20,14
47,4259,hat,possNP,possNP,B,0.79,block1,17,20,15
48,6934,ballet,MC1,MC,NonProj,0.04,block1,3,28,1
48,7509,veggie,MC2,MC,NonProj,0.02,block1,4,28,2
48,7604,olives,MC3,MC,NonProj,0.04,block1,5,28,3
48,10580,cheat,MC4,MC,NonProj,0.03,block1,6,28,4
48,11441,nails,stop,stop,C,0.04,block1,7,28,5
48,9641,kids,stupid,stupid,C,0.9,block1,8,28,6
48,11671,alcatraz,discover,discover,C,0.9,block1,9,28,7
48,12535,soccer,NRRC,NRRC,B,0.88,block1,10,28,8
48,6610,hat,MC6,MC,NonProj,0.02,block1,11,28,9
48,10140,muffins,only,only,C,0.13,block1,12,28,10
48,15302,aunt,know,know,C,0.92,block1,13,28,11
48,8383,boyfriend,possNP,possNP,B,0.9,block1,14,28,12
48,16749,cupcakes,MC5,MC,NonProj,0.07,block1,15,28,13
48,7141,stuntman,NomApp,NomApp,B,0.93,block1,16,28,14
48,8272,pizza,annoyed,annoyed,C,0.92,block1,17,28,15
49,11318,soccer,discover,discover,C,0.27,block1,3,29,1
49,5056,olives,MC2,MC,NonProj,0,block1,4,29,2
49,4952,aunt,possNP,possNP,B,0.73,block1,5,29,3
49,7031,ballet,NomApp,NomApp,B,1,block1,6,29,4
49,4233,bmw,MC1,MC,NonProj,0,block1,7,29,5
49,8279,nails,stop,stop,C,0.8,block1,8,29,6
49,4176,pizza,MC4,MC,NonProj,0,block1,9,29,7
49,3416,stuntman,MC3,MC,NonProj,0,block1,10,29,8
49,4640,hat,annoyed,annoyed,C,0.98,block1,11,29,9
49,6920,cupcakes,know,know,C,0.82,block1,12,29,10
49,6792,cheat,stupid,stupid,C,0.68,block1,13,29,11
49,4272,veggie,MC5,MC,NonProj,0,block1,14,29,12
49,357070,muffins,MC6,MC,NonProj,0,block1,15,29,13
49,32608,boyfriend,NRRC,NRRC,B,0.96,block1,16,29,14
49,8040,kids,only,only,C,0.65,block1,17,29,15
50,7116,pizza,MC3,MC,NonProj,0,block1,3,43,1
50,8823,bmw,annoyed,annoyed,C,0.99,block1,4,43,2
50,7669,kids,only,only,C,0.02,block1,5,43,3
50,4487,cupcakes,MC5,MC,NonProj,0.04,block1,6,43,4
50,7151,stuntman,NomApp,NomApp,B,0.99,block1,7,43,5
50,4494,ballet,MC2,MC,NonProj,0.04,block1,8,43,6
50,8732,nails,stupid,stupid,C,0.21,block1,9,43,7
50,7100,play,stop,stop,C,0.93,block1,10,43,8
50,4320,olives,MC4,MC,NonProj,0,block1,11,43,9
50,5026,muffins,MC1,MC,NonProj,0.01,block1,12,43,10
50,9650,alcatraz,discover,discover,C,0.51,block1,13,43,11
50,5384,hat,possNP,possNP,B,0.5,block1,14,43,12
50,5592,aunt,know,know,C,0.48,block1,15,43,13
50,6656,soccer,NRRC,NRRC,B,0.62,block1,16,43,14
50,4988,veggie,MC6,MC,NonProj,0.04,block1,17,43,15
51,4799,bmw,possNP,possNP,B,1,block1,3,20,1
51,8272,kids,only,only,C,0,block1,4,20,2
51,8831,play,stop,stop,C,0.97,block1,5,20,3
51,9072,cheat,know,know,C,0.92,block1,6,20,4
51,4040,ballet,MC4,MC,NonProj,0,block1,7,20,5
51,4216,olives,MC5,MC,NonProj,0.05,block1,8,20,6
51,2968,soccer,MC2,MC,NonProj,0,block1,9,20,7
51,7384,nails,stupid,stupid,C,0.68,block1,10,20,8
51,5648,aunt,NRRC,NRRC,B,0.8,block1,11,20,9
51,5072,stuntman,NomApp,NomApp,B,1,block1,12,20,10
51,3327,muffins,MC3,MC,NonProj,0,block1,13,20,11
51,4584,alcatraz,discover,discover,C,0.86,block1,14,20,12
51,3176,hat,MC6,MC,NonProj,0,block1,15,20,13
51,2975,pizza,annoyed,annoyed,C,1,block1,16,20,14
51,3041,boyfriend,MC1,MC,NonProj,0,block1,17,20,15
52,6840,aunt,possNP,possNP,B,0.93,block1,3,33,1
52,4055,soccer,MC6,MC,NonProj,0.0600000000000001,block1,4,33,2
52,3248,olives,MC2,MC,NonProj,0.05,block1,5,33,3
52,5022,pizza,only,only,C,0.03,block1,6,33,4
52,3502,muffins,MC1,MC,NonProj,0.04,block1,7,33,5
52,11084,kids,stupid,stupid,C,0.54,block1,8,33,6
52,5676,bmw,NomApp,NomApp,B,0.51,block1,9,33,7
52,3132,alcatraz,MC4,MC,NonProj,0.05,block1,10,33,8
52,5541,cupcakes,NRRC,NRRC,B,0.61,block1,11,33,9
52,3068,ballet,MC5,MC,NonProj,0.0600000000000001,block1,12,33,10
52,9146,nails,discover,discover,C,0.04,block1,13,33,11
52,4132,hat,annoyed,annoyed,C,0.51,block1,14,33,12
52,3575,boyfriend,MC3,MC,NonProj,0.0600000000000001,block1,15,33,13
52,4392,cheat,know,know,C,0.51,block1,16,33,14
52,7530,play,stop,stop,C,0.62,block1,17,33,15
53,13237,cheat,know,know,C,0.98,block1,3,27,1
53,9438,veggie,NomApp,NomApp,B,1,block1,4,27,2
53,7318,hat,MC5,MC,NonProj,0,block1,5,27,3
53,10383,kids,only,only,C,0.5,block1,6,27,4
53,7296,aunt,MC1,MC,NonProj,0,block1,7,27,5
53,12631,boyfriend,possNP,possNP,B,1,block1,8,27,6
53,7639,alcatraz,NRRC,NRRC,B,0.98,block1,9,27,7
53,11200,nails,stupid,stupid,C,1,block1,10,27,8
53,8727,ballet,stop,stop,C,0.51,block1,11,27,9
53,231075,bmw,annoyed,annoyed,C,0.97,block1,12,27,10
53,6135,stuntman,MC2,MC,NonProj,0,block1,13,27,11
53,56347,olives,MC4,MC,NonProj,0,block1,14,27,12
53,6007,cupcakes,MC6,MC,NonProj,0,block1,15,27,13
53,4750,pizza,MC3,MC,NonProj,0,block1,16,27,14
53,4594,soccer,discover,discover,C,0,block1,17,27,15
54,10526,cupcakes,MC6,MC,NonProj,0,block1,3,34,1
54,12139,kids,stupid,stupid,C,0.38,block1,4,34,2
54,16487,alcatraz,know,know,C,1,block1,5,34,3
54,4962,stuntman,MC3,MC,NonProj,0.01,block1,6,34,4
54,6102,ballet,MC1,MC,NonProj,0.01,block1,7,34,5
54,8368,boyfriend,NRRC,NRRC,B,0.98,block1,8,34,6
54,9497,bmw,NomApp,NomApp,B,0.92,block1,9,34,7
54,13255,play,discover,discover,C,0.97,block1,10,34,8
54,14375,hat,annoyed,annoyed,C,0.96,block1,11,34,9
54,9663,cheat,MC4,MC,NonProj,0.02,block1,12,34,10
54,10497,muffins,only,only,C,0.22,block1,13,34,11
54,9302,aunt,possNP,possNP,B,0.96,block1,14,34,12
54,35222,veggie,MC5,MC,NonProj,0.01,block1,15,34,13
54,13849,pizza,MC2,MC,NonProj,0.03,block1,16,34,14
54,14422,nails,stop,stop,C,0.03,block1,17,34,15
55,8913,aunt,MC4,MC,NonProj,0.07,block1,3,31,1
55,7094,olives,annoyed,annoyed,C,0.02,block1,4,31,2
55,8613,kids,stupid,stupid,C,0.94,block1,5,31,3
55,4199,muffins,only,only,C,0.0600000000000001,block1,6,31,4
55,6142,cupcakes,know,know,C,0.03,block1,7,31,5
55,5345,bmw,possNP,possNP,B,0.94,block1,8,31,6
55,8753,alcatraz,MC3,MC,NonProj,0.05,block1,9,31,7
55,12737,boyfriend,NRRC,NRRC,B,0.96,block1,10,31,8
55,5567,soccer,discover,discover,C,0.96,block1,11,31,9
55,6270,hat,MC5,MC,NonProj,0.09,block1,12,31,10
55,6198,play,MC6,MC,NonProj,0.01,block1,13,31,11
55,9117,stuntman,MC1,MC,NonProj,0.04,block1,14,31,12
55,6950,nails,MC2,MC,NonProj,0.03,block1,15,31,13
55,8406,veggie,NomApp,NomApp,B,0.98,block1,16,31,14
55,6986,ballet,stop,stop,C,0.0600000000000001,block1,17,31,15
56,7523,kids,stupid,stupid,C,0.99,block1,3,48,1
56,7351,veggie,NRRC,NRRC,B,0.99,block1,4,48,2
56,5219,bmw,NomApp,NomApp,B,0.98,block1,5,48,3
56,9749,nails,discover,discover,C,0.43,block1,6,48,4
56,8883,soccer,MC4,MC,NonProj,0.02,block1,7,48,5
56,4028,boyfriend,MC6,MC,NonProj,0.02,block1,8,48,6
56,5116,olives,MC2,MC,NonProj,0.01,block1,9,48,7
56,10493,hat,annoyed,annoyed,C,0.99,block1,10,48,8
56,8597,cupcakes,know,know,C,0.99,block1,11,48,9
56,11163,play,stop,stop,C,0.99,block1,12,48,10
56,8677,aunt,possNP,possNP,B,1,block1,13,48,11
56,4193,cheat,MC5,MC,NonProj,0.01,block1,14,48,12
56,4979,muffins,only,only,C,0.99,block1,15,48,13
56,5759,stuntman,MC1,MC,NonProj,0,block1,16,48,14
56,5798,pizza,MC3,MC,NonProj,0.02,block1,17,48,15
57,16467,ballet,stop,stop,C,0.97,block1,3,37,1
57,12120,cupcakes,know,know,C,0.04,block1,4,37,2
57,14582,nails,stupid,stupid,C,0.96,block1,5,37,3
57,9690,pizza,MC2,MC,NonProj,0.02,block1,6,37,4
57,10064,bmw,MC4,MC,NonProj,0.02,block1,7,37,5
57,14335,hat,annoyed,annoyed,C,0.01,block1,8,37,6
57,16803,aunt,possNP,possNP,B,0.97,block1,9,37,7
57,3248,cheat,MC3,MC,NonProj,0.01,block1,10,37,8
57,3362,veggie,NomApp,NomApp,B,0.99,block1,11,37,9
57,3308,kids,only,only,C,0.04,block1,12,37,10
57,3762,stuntman,MC1,MC,NonProj,0.03,block1,13,37,11
57,3390,soccer,discover,discover,C,0.01,block1,14,37,12
57,14600,muffins,NRRC,NRRC,B,0.01,block1,15,37,13
57,9747,play,MC6,MC,NonProj,0.05,block1,16,37,14
57,2472,olives,MC5,MC,NonProj,0.96,block1,17,37,15
58,7692,ballet,MC6,MC,NonProj,0.01,block1,3,31,1
58,4758,olives,MC3,MC,NonProj,0.01,block1,4,31,2
58,8549,cupcakes,NRRC,NRRC,B,0.98,block1,5,31,3
58,5438,veggie,NomApp,NomApp,B,0.99,block1,6,31,4
58,7552,soccer,discover,discover,C,0.02,block1,7,31,5
58,5477,cheat,stupid,stupid,C,0.99,block1,8,31,6
58,3723,stuntman,MC5,MC,NonProj,0.03,block1,9,31,7
58,7785,bmw,annoyed,annoyed,C,0.98,block1,10,31,8
58,3262,hat,MC4,MC,NonProj,0.02,block1,11,31,9
58,4292,alcatraz,MC1,MC,NonProj,0.03,block1,12,31,10
58,6471,kids,only,only,C,0.98,block1,13,31,11
58,5318,aunt,know,know,C,0.98,block1,14,31,12
58,4383,play,stop,stop,C,0.99,block1,15,31,13
58,4027,nails,MC2,MC,NonProj,0.01,block1,16,31,14
58,4476,boyfriend,possNP,possNP,B,0.98,block1,17,31,15
59,14009,nails,discover,discover,C,0,block1,3,27,1
59,19259,aunt,know,know,C,0.8,block1,4,27,2
59,7441,soccer,annoyed,annoyed,C,0.85,block1,5,27,3
59,9335,bmw,NomApp,NomApp,B,0.9,block1,6,27,4
59,8652,alcatraz,MC2,MC,NonProj,0,block1,7,27,5
59,8918,muffins,MC4,MC,NonProj,0,block1,8,27,6
59,5624,cheat,MC6,MC,NonProj,0,block1,9,27,7
59,8476,boyfriend,possNP,possNP,B,1,block1,10,27,8
59,7632,olives,MC5,MC,NonProj,0,block1,11,27,9
59,7267,veggie,NRRC,NRRC,B,0.93,block1,12,27,10
59,6323,ballet,MC3,MC,NonProj,0.11,block1,13,27,11
59,6728,stuntman,stupid,stupid,C,1,block1,14,27,12
59,3378,pizza,MC1,MC,NonProj,0,block1,15,27,13
59,7106,play,stop,stop,C,1,block1,16,27,14
59,10889,kids,only,only,C,0.75,block1,17,27,15
60,10061,stuntman,stupid,stupid,C,0.96,block1,3,23,1
60,22616,alcatraz,discover,discover,C,0.97,block1,4,23,2
60,9167,kids,only,only,C,0.03,block1,5,23,3
60,5437,bmw,MC2,MC,NonProj,0.07,block1,6,23,4
60,8076,veggie,NomApp,NomApp,B,0.97,block1,7,23,5
60,7493,hat,possNP,possNP,B,0.99,block1,8,23,6
60,4552,olives,MC6,MC,NonProj,0.04,block1,9,23,7
60,5667,soccer,annoyed,annoyed,C,0.95,block1,10,23,8
60,3367,pizza,MC4,MC,NonProj,0.04,block1,11,23,9
60,4091,aunt,know,know,C,0.97,block1,12,23,10
60,5907,muffins,NRRC,NRRC,B,0.98,block1,13,23,11
60,9615,ballet,stop,stop,C,0.05,block1,14,23,12
60,3830,play,MC1,MC,NonProj,0.07,block1,15,23,13
60,2807,boyfriend,MC3,MC,NonProj,0.01,block1,16,23,14
60,4876,cupcakes,MC5,MC,NonProj,0.02,block1,17,23,15
61,9999,olives,MC4,MC,NonProj,0.05,block1,3,36,1
61,7496,aunt,NRRC,NRRC,B,0.75,block1,4,36,2
61,6982,soccer,discover,discover,C,0.03,block1,5,36,3
61,7847,muffins,MC6,MC,NonProj,0.1,block1,6,36,4
61,10151,ballet,stop,stop,C,0.2,block1,7,36,5
61,10438,hat,annoyed,annoyed,C,0.75,block1,8,36,6
61,6913,play,know,know,C,0.03,block1,9,36,7
61,4720,pizza,only,only,C,0.03,block1,10,36,8
61,4888,cheat,MC3,MC,NonProj,0.03,block1,11,36,9
61,7869,kids,stupid,stupid,C,0.33,block1,12,36,10
61,6047,nails,MC2,MC,NonProj,0.0600000000000001,block1,13,36,11
61,4023,veggie,MC5,MC,NonProj,0.03,block1,14,36,12
61,8079,stuntman,NomApp,NomApp,B,0.51,block1,15,36,13
61,5632,bmw,MC1,MC,NonProj,0.01,block1,16,36,14
61,6135,boyfriend,possNP,possNP,B,0.55,block1,17,36,15
62,28150,bmw,possNP,possNP,B,0.98,block1,3,34,1
62,8288,veggie,NomApp,NomApp,B,0.97,block1,4,34,2
62,12359,cheat,stupid,stupid,C,0.76,block1,5,34,3
62,6544,muffins,only,only,C,0,block1,6,34,4
62,3856,alcatraz,MC4,MC,NonProj,0,block1,7,34,5
62,4992,olives,MC2,MC,NonProj,0,block1,8,34,6
62,8264,cupcakes,NRRC,NRRC,B,1,block1,9,34,7
62,4864,stuntman,MC3,MC,NonProj,0,block1,10,34,8
62,6529,nails,MC1,MC,NonProj,0,block1,11,34,9
62,5343,aunt,MC6,MC,NonProj,0,block1,12,34,10
62,6576,ballet,stop,stop,C,0,block1,13,34,11
62,4007,boyfriend,MC5,MC,NonProj,0,block1,14,34,12
62,8504,hat,know,know,C,1,block1,15,34,13
62,6976,play,discover,discover,C,0,block1,16,34,14
62,9384,soccer,annoyed,annoyed,C,0.51,block1,17,34,15
63,27479,stuntman,MC3,MC,NonProj,0.05,block1,3,20,1
63,14436,nails,stupid,stupid,C,0.88,block1,4,20,2
63,8520,muffins,only,only,C,0.35,block1,5,20,3
63,5852,ballet,MC5,MC,NonProj,0.09,block1,6,20,4
63,7536,olives,annoyed,annoyed,C,0.94,block1,7,20,5
63,63558,hat,possNP,possNP,B,0.93,block1,8,20,6
63,5216,pizza,discover,discover,C,0.03,block1,9,20,7
63,5954,alcatraz,NRRC,NRRC,B,0.87,block1,10,20,8
63,16557,play,stop,stop,C,0.89,block1,11,20,9
63,22010,cupcakes,know,know,C,0.08,block1,12,20,10
63,4331,cheat,MC1,MC,NonProj,0.01,block1,13,20,11
63,21903,boyfriend,MC6,MC,NonProj,0.02,block1,14,20,12
63,16172,bmw,NomApp,NomApp,B,0.8,block1,15,20,13
63,3026,veggie,MC2,MC,NonProj,0.04,block1,16,20,14
63,5942,kids,MC4,MC,NonProj,0.0600000000000001,block1,17,20,15
64,8879,hat,know,know,C,0.87,block1,3,20,1
64,5296,stuntman,NomApp,NomApp,B,1,block1,4,20,2
64,7456,ballet,stop,stop,C,0.13,block1,5,20,3
64,9080,cupcakes,MC3,MC,NonProj,0,block1,6,20,4
64,7088,nails,discover,discover,C,0.89,block1,7,20,5
64,9305,muffins,NRRC,NRRC,B,0.79,block1,8,20,6
64,5295,olives,annoyed,annoyed,C,0.88,block1,9,20,7
64,4920,soccer,MC2,MC,NonProj,0,block1,10,20,8
64,7720,play,MC4,MC,NonProj,0.07,block1,11,20,9
64,4704,aunt,possNP,possNP,B,0.89,block1,12,20,10
64,6400,pizza,only,only,C,0.73,block1,13,20,11
64,3320,bmw,MC6,MC,NonProj,0.02,block1,14,20,12
64,2680,veggie,MC1,MC,NonProj,0,block1,15,20,13
64,6511,kids,MC5,MC,NonProj,0,block1,16,20,14
64,8455,cheat,stupid,stupid,C,0.33,block1,17,20,15
65,13278,stuntman,stupid,stupid,C,0.97,block1,3,57,1
65,27525,veggie,NRRC,NRRC,B,0.96,block1,4,57,2
65,6416,pizza,MC4,MC,NonProj,0.03,block1,5,57,3
65,9525,bmw,MC5,MC,NonProj,0.04,block1,6,57,4
65,15573,ballet,NomApp,NomApp,B,0.94,block1,7,57,5
65,13289,soccer,annoyed,annoyed,C,0.85,block1,8,57,6
65,19458,play,stop,stop,C,0.03,block1,9,57,7
65,5252,boyfriend,MC2,MC,NonProj,0.05,block1,10,57,8
65,5310,cupcakes,MC6,MC,NonProj,0.03,block1,11,57,9
65,15466,hat,possNP,possNP,B,0.88,block1,12,57,10
65,101353,nails,discover,discover,C,0.88,block1,13,57,11
65,4114,olives,MC3,MC,NonProj,0.03,block1,14,57,12
65,4243,alcatraz,MC1,MC,NonProj,0.02,block1,15,57,13
65,9898,kids,only,only,C,0.97,block1,16,57,14
65,7672,cheat,know,know,C,0.92,block1,17,57,15
66,11175,hat,MC5,MC,NonProj,0,block1,3,21,1
66,9041,stuntman,stupid,stupid,C,0.84,block1,4,21,2
66,7934,aunt,possNP,possNP,B,0.55,block1,5,21,3
66,3801,veggie,MC3,MC,NonProj,0.01,block1,6,21,4
66,8721,soccer,discover,discover,C,0.25,block1,7,21,5
66,4649,boyfriend,MC4,MC,NonProj,0.01,block1,8,21,6
66,9011,alcatraz,NRRC,NRRC,B,0.58,block1,9,21,7
66,6255,play,MC1,MC,NonProj,0.01,block1,10,21,8
66,5915,cupcakes,know,know,C,0.93,block1,11,21,9
66,5971,bmw,annoyed,annoyed,C,0.84,block1,12,21,10
66,6829,kids,only,only,C,0.35,block1,13,21,11
66,10347,nails,stop,stop,C,0.89,block1,14,21,12
66,6017,pizza,MC2,MC,NonProj,0,block1,15,21,13
66,6292,ballet,NomApp,NomApp,B,0.76,block1,16,21,14
66,6970,cheat,MC6,MC,NonProj,0.02,block1,17,21,15
67,5826,cheat,MC6,MC,NonProj,0,block1,3,45,1
67,4680,boyfriend,possNP,possNP,B,1,block1,4,45,2
67,7967,nails,stop,stop,C,1,block1,5,45,3
67,3904,veggie,MC2,MC,NonProj,0,block1,6,45,4
67,4440,olives,annoyed,annoyed,C,1,block1,7,45,5
67,7080,cupcakes,NRRC,NRRC,B,0.99,block1,8,45,6
67,12152,kids,stupid,stupid,C,0.29,block1,9,45,7
67,2904,ballet,MC5,MC,NonProj,0,block1,10,45,8
67,3303,aunt,MC4,MC,NonProj,0,block1,11,45,9
67,11688,soccer,discover,discover,C,0.78,block1,12,45,10
67,5768,play,know,know,C,1,block1,13,45,11
67,2727,stuntman,MC1,MC,NonProj,0,block1,14,45,12
67,8807,pizza,only,only,C,1,block1,15,45,13
67,2944,hat,MC3,MC,NonProj,0,block1,16,45,14
67,5807,bmw,NomApp,NomApp,B,1,block1,17,45,15
68,31630,cupcakes,NRRC,NRRC,B,0.54,block1,3,36,1
68,8862,kids,MC1,MC,NonProj,0,block1,4,36,2
68,9512,veggie,NomApp,NomApp,B,0.53,block1,5,36,3
68,5743,alcatraz,MC5,MC,NonProj,0,block1,6,36,4
68,7463,play,stop,stop,C,0.76,block1,7,36,5
68,6214,ballet,MC2,MC,NonProj,0,block1,8,36,6
68,4745,bmw,possNP,possNP,B,0.67,block1,9,36,7
68,6912,hat,MC6,MC,NonProj,0,block1,10,36,8
68,9333,pizza,annoyed,annoyed,C,0.65,block1,11,36,9
68,12402,nails,discover,discover,C,0.8,block1,12,36,10
68,6944,boyfriend,MC3,MC,NonProj,0.01,block1,13,36,11
68,9151,stuntman,stupid,stupid,C,0.69,block1,14,36,12
68,16575,aunt,know,know,C,0.69,block1,15,36,13
68,5607,cheat,MC4,MC,NonProj,0,block1,16,36,14
68,6183,muffins,only,only,C,0.83,block1,17,36,15
69,5971,ballet,MC5,MC,NonProj,0.03,block1,3,24,1
69,7141,alcatraz,discover,discover,C,0,block1,4,24,2
69,4991,bmw,possNP,possNP,B,0.72,block1,5,24,3
69,6139,veggie,NomApp,NomApp,B,1,block1,6,24,4
69,7112,kids,only,only,C,0.73,block1,7,24,5
69,4830,soccer,NRRC,NRRC,B,0.88,block1,8,24,6
69,6474,cheat,MC6,MC,NonProj,0,block1,9,24,7
69,3623,hat,MC1,MC,NonProj,0.02,block1,10,24,8
69,3364,aunt,MC4,MC,NonProj,0,block1,11,24,9
69,5986,cupcakes,know,know,C,0.79,block1,12,24,10
69,4106,stuntman,MC3,MC,NonProj,0.03,block1,13,24,11
69,7536,play,stop,stop,C,0.78,block1,14,24,12
69,6377,olives,annoyed,annoyed,C,1,block1,15,24,13
69,4383,muffins,MC2,MC,NonProj,0,block1,16,24,14
69,7069,nails,stupid,stupid,C,0.65,block1,17,24,15
70,13083,kids,stupid,stupid,C,0.82,block1,3,27,1
70,6666,cupcakes,NRRC,NRRC,B,0.87,block1,4,27,2
70,4668,boyfriend,possNP,possNP,B,0.9,block1,5,27,3
70,6588,muffins,MC5,MC,NonProj,0,block1,6,27,4
70,5758,nails,stop,stop,C,0.93,block1,7,27,5
70,5693,aunt,MC2,MC,NonProj,0,block1,8,27,6
70,5533,hat,know,know,C,0.89,block1,9,27,7
70,4220,bmw,annoyed,annoyed,C,0.9,block1,10,27,8
70,6548,alcatraz,discover,discover,C,0.91,block1,11,27,9
70,5917,play,MC3,MC,NonProj,0,block1,12,27,10
70,5890,ballet,MC1,MC,NonProj,0,block1,13,27,11
70,5396,stuntman,MC4,MC,NonProj,0,block1,14,27,12
70,6063,veggie,NomApp,NomApp,B,0.91,block1,15,27,13
70,4686,pizza,only,only,C,0,block1,16,27,14
70,4333,olives,MC6,MC,NonProj,0,block1,17,27,15
71,6678,bmw,know,know,C,0.07,block1,3,27,1
71,5896,muffins,MC1,MC,NonProj,0.11,block1,4,27,2
71,7880,stuntman,MC5,MC,NonProj,0.07,block1,5,27,3
71,5424,olives,MC3,MC,NonProj,0.15,block1,6,27,4
71,1871,aunt,MC6,MC,NonProj,0.45,block1,7,27,5
71,6240,cheat,stupid,stupid,C,0.74,block1,8,27,6
71,3831,pizza,annoyed,annoyed,C,0.8,block1,9,27,7
71,5538,ballet,NomApp,NomApp,B,0.75,block1,10,27,8
71,2725,play,stop,stop,C,0.33,block1,11,27,9
71,3984,soccer,MC4,MC,NonProj,0.03,block1,12,27,10
71,4056,kids,only,only,C,0.09,block1,13,27,11
71,3400,hat,possNP,possNP,B,0.36,block1,14,27,12
71,2984,veggie,MC2,MC,NonProj,0.17,block1,15,27,13
71,3600,cupcakes,NRRC,NRRC,B,0.48,block1,16,27,14
71,3752,nails,discover,discover,C,0.03,block1,17,27,15
72,4277,hat,MC6,MC,NonProj,0.02,block1,3,41,1
72,3476,olives,MC4,MC,NonProj,0.02,block1,4,41,2
72,8032,soccer,know,know,C,0.99,block1,5,41,3
72,6861,veggie,NRRC,NRRC,B,0.8,block1,6,41,4
72,4740,cheat,stupid,stupid,C,0.51,block1,7,41,5
72,6824,nails,discover,discover,C,0.59,block1,8,41,6
72,5661,ballet,stop,stop,C,0.79,block1,9,41,7
72,5310,cupcakes,MC3,MC,NonProj,0.02,block1,10,41,8
72,3756,muffins,MC5,MC,NonProj,0.02,block1,11,41,9
72,5264,kids,only,only,C,0.63,block1,12,41,10
72,3340,aunt,MC2,MC,NonProj,0.02,block1,13,41,11
72,4374,boyfriend,possNP,possNP,B,0.66,block1,14,41,12
72,4656,stuntman,NomApp,NomApp,B,0.88,block1,15,41,13
72,3596,pizza,MC1,MC,NonProj,0.02,block1,16,41,14
72,4111,bmw,annoyed,annoyed,C,0.76,block1,17,41,15
74,21877,aunt,MC2,MC,NonProj,0.0600000000000001,block1,3,52,1
74,14328,bmw,possNP,possNP,B,0.9,block1,4,52,2
74,9352,cheat,stupid,stupid,C,0.86,block1,5,52,3
74,6792,ballet,MC5,MC,NonProj,0.08,block1,6,52,4
74,7768,alcatraz,MC1,MC,NonProj,0.0600000000000001,block1,7,52,5
74,14368,veggie,NRRC,NRRC,B,0.81,block1,8,52,6
74,16528,cupcakes,know,know,C,0.74,block1,9,52,7
74,5312,hat,MC3,MC,NonProj,0.08,block1,10,52,8
74,19143,muffins,only,only,C,0.67,block1,11,52,9
74,8688,olives,annoyed,annoyed,C,0.91,block1,12,52,10
74,6855,kids,MC6,MC,NonProj,0.12,block1,13,52,11
74,23783,soccer,discover,discover,C,0.68,block1,14,52,12
74,6568,nails,MC4,MC,NonProj,0.0600000000000001,block1,15,52,13
74,8640,play,stop,stop,C,0.95,block1,16,52,14
74,8120,stuntman,NomApp,NomApp,B,0.94,block1,17,52,15
75,8598,alcatraz,MC6,MC,NonProj,0.04,block1,3,31,1
75,10362,soccer,discover,discover,C,0.71,block1,4,31,2
75,4520,hat,MC1,MC,NonProj,0.05,block1,5,31,3
75,6313,stuntman,NomApp,NomApp,B,0.94,block1,6,31,4
75,9136,cheat,know,know,C,0.63,block1,7,31,5
75,6254,kids,MC4,MC,NonProj,0.02,block1,8,31,6
75,10544,muffins,only,only,C,0.71,block1,9,31,7
75,5398,ballet,MC2,MC,NonProj,0,block1,10,31,8
75,12897,nails,stupid,stupid,C,0.76,block1,11,31,9
75,4063,cupcakes,MC5,MC,NonProj,0.02,block1,12,31,10
75,4978,olives,MC3,MC,NonProj,0.04,block1,13,31,11
75,10080,veggie,NRRC,NRRC,B,0.94,block1,14,31,12
75,11966,play,stop,stop,C,0.97,block1,15,31,13
75,6686,boyfriend,possNP,possNP,B,1,block1,16,31,14
75,12038,pizza,annoyed,annoyed,C,0.79,block1,17,31,15
76,8044,play,MC5,MC,NonProj,0.03,block1,3,32,1
76,8379,cheat,MC2,MC,NonProj,0.05,block1,4,32,2
76,7374,veggie,MC1,MC,NonProj,0.05,block1,5,32,3
76,14397,stuntman,stupid,stupid,C,0.96,block1,6,32,4
76,11930,cupcakes,know,know,C,0.01,block1,7,32,5
76,5890,hat,MC6,MC,NonProj,0.02,block1,8,32,6
76,13817,bmw,annoyed,annoyed,C,0.96,block1,9,32,7
76,12220,muffins,NRRC,NRRC,B,0.05,block1,10,32,8
76,6153,olives,MC4,MC,NonProj,0.04,block1,11,32,9
76,8599,ballet,NomApp,NomApp,B,0.98,block1,12,32,10
76,11759,soccer,discover,discover,C,0.69,block1,13,32,11
76,9141,aunt,possNP,possNP,B,0.44,block1,14,32,12
76,17822,kids,only,only,C,0.24,block1,15,32,13
76,6664,alcatraz,MC3,MC,NonProj,0.03,block1,16,32,14
76,6523,nails,stop,stop,C,0.05,block1,17,32,15
77,5286,aunt,MC4,MC,NonProj,0.02,block1,3,21,1
77,5982,hat,possNP,possNP,B,0.78,block1,4,21,2
77,8016,olives,annoyed,annoyed,C,0.92,block1,5,21,3
77,6970,alcatraz,know,know,C,0.66,block1,6,21,4
77,10380,kids,only,only,C,0.1,block1,7,21,5
77,10275,bmw,MC2,MC,NonProj,0,block1,8,21,6
77,4380,veggie,MC5,MC,NonProj,0.03,block1,9,21,7
77,6344,cupcakes,MC3,MC,NonProj,0.08,block1,10,21,8
77,7871,play,stop,stop,C,0.91,block1,11,21,9
77,4976,soccer,discover,discover,C,0.45,block1,12,21,10
77,6068,stuntman,stupid,stupid,C,0.74,block1,13,21,11
77,5844,nails,MC6,MC,NonProj,0.07,block1,14,21,12
77,4234,ballet,NomApp,NomApp,B,0.79,block1,15,21,13
77,3302,pizza,MC1,MC,NonProj,0.07,block1,16,21,14
77,12216,muffins,NRRC,NRRC,B,0.91,block1,17,21,15
78,5356,olives,MC1,MC,NonProj,0,block1,3,24,1
78,3303,veggie,MC2,MC,NonProj,0,block1,4,24,2
78,4023,aunt,MC4,MC,NonProj,0.0600000000000001,block1,5,24,3
78,3800,bmw,MC5,MC,NonProj,0.38,block1,6,24,4
78,3376,soccer,MC3,MC,NonProj,0.16,block1,7,24,5
78,3712,pizza,annoyed,annoyed,C,0.13,block1,8,24,6
78,2503,hat,MC6,MC,NonProj,0.33,block1,9,24,7
78,3767,alcatraz,know,know,C,0.15,block1,10,24,8
78,1568,cupcakes,NRRC,NRRC,B,0.1,block1,11,24,9
78,5656,nails,stop,stop,C,0.98,block1,12,24,10
78,5952,boyfriend,possNP,possNP,B,0.94,block1,13,24,11
78,11664,stuntman,stupid,stupid,C,0.5,block1,14,24,12
78,2337,ballet,NomApp,NomApp,B,0.52,block1,15,24,13
78,2919,muffins,only,only,C,0.13,block1,16,24,14
78,2495,play,discover,discover,C,0.21,block1,17,24,15
79,10822,hat,MC5,MC,NonProj,0.03,block1,3,26,1
79,5936,olives,annoyed,annoyed,C,0.92,block1,4,26,2
79,6463,soccer,discover,discover,C,0.05,block1,5,26,3
79,11240,veggie,NomApp,NomApp,B,0.95,block1,6,26,4
79,3801,muffins,MC4,MC,NonProj,0.05,block1,7,26,5
79,7016,cheat,know,know,C,0.68,block1,8,26,6
79,4080,aunt,MC3,MC,NonProj,0.08,block1,9,26,7
79,5832,nails,MC1,MC,NonProj,0.03,block1,10,26,8
79,4767,stuntman,stupid,stupid,C,0.9,block1,11,26,9
79,8177,pizza,MC6,MC,NonProj,0.02,block1,12,26,10
79,6960,kids,only,only,C,0.78,block1,13,26,11
79,6072,cupcakes,MC2,MC,NonProj,0.02,block1,14,26,12
79,5840,alcatraz,NRRC,NRRC,B,0.92,block1,15,26,13
79,4120,bmw,possNP,possNP,B,0.94,block1,16,26,14
79,9679,play,stop,stop,C,0.94,block1,17,26,15
80,16814,pizza,only,only,C,0.97,block1,3,53,1
80,8815,veggie,MC1,MC,NonProj,0.02,block1,4,53,2
80,9822,cheat,stupid,stupid,C,0.26,block1,5,53,3
80,5639,hat,MC2,MC,NonProj,0.02,block1,6,53,4
80,6433,bmw,MC5,MC,NonProj,0.03,block1,7,53,5
80,7095,alcatraz,NRRC,NRRC,B,0.97,block1,8,53,6
80,4719,muffins,MC3,MC,NonProj,0.01,block1,9,53,7
80,8041,nails,stop,stop,C,1,block1,10,53,8
80,6775,olives,annoyed,annoyed,C,1,block1,11,53,9
80,7393,cupcakes,know,know,C,1,block1,12,53,10
80,6127,stuntman,NomApp,NomApp,B,0.98,block1,13,53,11
80,7704,aunt,possNP,possNP,B,0.98,block1,14,53,12
80,5560,kids,MC4,MC,NonProj,0.02,block1,15,53,13
80,5799,play,MC6,MC,NonProj,0.01,block1,16,53,14
80,5896,soccer,discover,discover,C,0.97,block1,17,53,15
81,14134,stuntman,NomApp,NomApp,B,1,block1,3,21,1
81,7647,hat,possNP,possNP,B,1,block1,4,21,2
81,8568,muffins,MC1,MC,NonProj,0,block1,5,21,3
81,11280,play,stop,stop,C,1,block1,6,21,4
81,4159,alcatraz,MC5,MC,NonProj,0,block1,7,21,5
81,9831,bmw,know,know,C,1,block1,8,21,6
81,6536,soccer,MC2,MC,NonProj,0,block1,9,21,7
81,10152,nails,discover,discover,C,0,block1,10,21,8
81,11375,boyfriend,MC3,MC,NonProj,0,block1,11,21,9
81,7864,veggie,NRRC,NRRC,B,1,block1,12,21,10
81,5904,pizza,annoyed,annoyed,C,1,block1,13,21,11
81,6768,cheat,stupid,stupid,C,1,block1,14,21,12
81,4255,olives,MC4,MC,NonProj,0,block1,15,21,13
81,6655,cupcakes,MC6,MC,NonProj,0,block1,16,21,14
81,6576,kids,only,only,C,1,block1,17,21,15
82,16024,veggie,NRRC,NRRC,B,0.98,block1,3,23,1
82,16307,soccer,annoyed,annoyed,C,0.98,block1,4,23,2
82,28823,bmw,NomApp,NomApp,B,0.03,block1,5,23,3
82,9013,boyfriend,MC2,MC,NonProj,0.02,block1,6,23,4
82,8227,cupcakes,know,know,C,0.02,block1,7,23,5
82,7024,cheat,MC1,MC,NonProj,0.03,block1,8,23,6
82,8020,nails,MC6,MC,NonProj,0.03,block1,9,23,7
82,8172,kids,MC5,MC,NonProj,0.03,block1,10,23,8
82,8375,ballet,MC4,MC,NonProj,0.02,block1,11,23,9
82,12400,hat,possNP,possNP,B,0.98,block1,12,23,10
82,20564,play,stop,stop,C,0.98,block1,13,23,11
82,17999,pizza,discover,discover,C,0.98,block1,14,23,12
82,10248,stuntman,stupid,stupid,C,0.02,block1,15,23,13
82,7775,muffins,only,only,C,0.03,block1,16,23,14
82,6728,aunt,MC3,MC,NonProj,0.01,block1,17,23,15
83,14943,nails,discover,discover,C,0.73,block1,3,33,1
83,9493,ballet,NomApp,NomApp,B,0.75,block1,4,33,2
83,7832,cupcakes,NRRC,NRRC,B,0.65,block1,5,33,3
83,8656,bmw,MC2,MC,NonProj,0.1,block1,6,33,4
83,4459,cheat,stupid,stupid,C,0.77,block1,7,33,5
83,5901,pizza,annoyed,annoyed,C,0.69,block1,8,33,6
83,7785,soccer,know,know,C,0.74,block1,9,33,7
83,5383,aunt,MC5,MC,NonProj,0.12,block1,10,33,8
83,6086,play,stop,stop,C,0.49,block1,11,33,9
83,3885,stuntman,MC1,MC,NonProj,0.14,block1,12,33,10
83,2652,alcatraz,MC3,MC,NonProj,0.15,block1,13,33,11
83,4780,hat,possNP,possNP,B,0.83,block1,14,33,12
83,3459,olives,MC4,MC,NonProj,0.11,block1,15,33,13
83,5154,muffins,MC6,MC,NonProj,0.15,block1,16,33,14
83,8875,kids,only,only,C,0.57,block1,17,33,15
84,10701,veggie,NomApp,NomApp,B,1,block1,3,25,1
84,5484,cupcakes,know,know,C,0.97,block1,4,25,2
84,6707,cheat,MC2,MC,NonProj,0.04,block1,5,25,3
84,8816,pizza,only,only,C,0.89,block1,6,25,4
84,3856,aunt,MC4,MC,NonProj,0.02,block1,7,25,5
84,5247,stuntman,stupid,stupid,C,1,block1,8,25,6
84,6484,play,discover,discover,C,0.99,block1,9,25,7
84,3511,kids,MC5,MC,NonProj,0.03,block1,10,25,8
84,3321,olives,MC1,MC,NonProj,0.03,block1,11,25,9
84,4359,soccer,annoyed,annoyed,C,1,block1,12,25,10
84,4820,boyfriend,possNP,possNP,B,1,block1,13,25,11
84,3614,ballet,stop,stop,C,0.83,block1,14,25,12
84,7610,bmw,MC3,MC,NonProj,0.02,block1,15,25,13
84,5201,alcatraz,NRRC,NRRC,B,0.99,block1,16,25,14
84,3575,hat,MC6,MC,NonProj,0.02,block1,17,25,15
85,10274,cheat,MC3,MC,NonProj,0.02,block1,3,35,1
85,7996,pizza,MC6,MC,NonProj,0.01,block1,4,35,2
85,8950,play,stop,stop,C,0.97,block1,5,35,3
85,5432,kids,stupid,stupid,C,0.81,block1,6,35,4
85,3895,stuntman,MC2,MC,NonProj,0.01,block1,7,35,5
85,9451,olives,MC5,MC,NonProj,0.01,block1,8,35,6
85,6544,boyfriend,NRRC,NRRC,B,0.93,block1,9,35,7
85,5354,aunt,possNP,possNP,B,0.96,block1,10,35,8
85,10247,alcatraz,MC1,MC,NonProj,0.01,block1,11,35,9
85,6685,cupcakes,know,know,C,0.9,block1,12,35,10
85,5166,muffins,only,only,C,0.8,block1,13,35,11
85,4691,bmw,annoyed,annoyed,C,0.85,block1,14,35,12
85,8905,veggie,NomApp,NomApp,B,0.83,block1,15,35,13
85,4826,nails,discover,discover,C,0.64,block1,16,35,14
85,4410,ballet,MC4,MC,NonProj,0.01,block1,17,35,15
86,19283,nails,stupid,stupid,C,1,block1,3,31,1
86,5767,play,stop,stop,C,0.97,block1,4,31,2
86,3588,hat,MC3,MC,NonProj,0,block1,5,31,3
86,3869,stuntman,NomApp,NomApp,B,1,block1,6,31,4
86,4376,boyfriend,possNP,possNP,B,1,block1,7,31,5
86,4275,ballet,MC5,MC,NonProj,0,block1,8,31,6
86,7740,soccer,know,know,C,1,block1,9,31,7
86,4151,aunt,MC1,MC,NonProj,0,block1,10,31,8
86,4309,kids,MC4,MC,NonProj,0,block1,11,31,9
86,4219,bmw,MC6,MC,NonProj,0,block1,12,31,10
86,6378,muffins,only,only,C,0.96,block1,13,31,11
86,6885,alcatraz,discover,discover,C,1,block1,14,31,12
86,6525,cupcakes,NRRC,NRRC,B,1,block1,15,31,13
86,4702,olives,annoyed,annoyed,C,1,block1,16,31,14
86,3780,pizza,MC2,MC,NonProj,0.01,block1,17,31,15
87,12291,ballet,MC5,MC,NonProj,0,block1,3,35,1
87,7154,stuntman,MC4,MC,NonProj,0,block1,4,35,2
87,5498,olives,annoyed,annoyed,C,0,block1,5,35,3
87,11226,cupcakes,NRRC,NRRC,B,0.85,block1,6,35,4
87,7506,play,MC1,MC,NonProj,0,block1,7,35,5
87,8460,bmw,possNP,possNP,B,0.7,block1,8,35,6
87,11549,boyfriend,MC2,MC,NonProj,0,block1,9,35,7
87,8815,soccer,discover,discover,C,0.88,block1,10,35,8
87,8662,cheat,stupid,stupid,C,0.56,block1,11,35,9
87,10433,nails,stop,stop,C,0.91,block1,12,35,10
87,3812,pizza,MC6,MC,NonProj,0,block1,13,35,11
87,7269,veggie,NomApp,NomApp,B,0.85,block1,14,35,12
87,11898,hat,know,know,C,0.88,block1,15,35,13
87,7529,kids,only,only,C,0.25,block1,16,35,14
87,4036,muffins,MC3,MC,NonProj,0,block1,17,35,15
88,8798,kids,MC6,MC,NonProj,0.56,block1,3,29,1
88,4675,boyfriend,MC4,MC,NonProj,0.14,block1,4,29,2
88,6809,bmw,NomApp,NomApp,B,0.78,block1,5,29,3
88,5433,play,stop,stop,C,0.78,block1,6,29,4
88,5168,veggie,NRRC,NRRC,B,0.77,block1,7,29,5
88,3676,muffins,MC5,MC,NonProj,0.1,block1,8,29,6
88,4628,cheat,know,know,C,0.76,block1,9,29,7
88,7226,nails,stupid,stupid,C,0.73,block1,10,29,8
88,7732,alcatraz,discover,discover,C,0.63,block1,11,29,9
88,3970,soccer,annoyed,annoyed,C,0.72,block1,12,29,10
88,3762,hat,possNP,possNP,B,0.75,block1,13,29,11
88,3920,olives,MC3,MC,NonProj,0.1,block1,14,29,12
88,3251,pizza,only,only,C,0.13,block1,15,29,13
88,2977,stuntman,MC1,MC,NonProj,0.22,block1,16,29,14
88,3924,aunt,MC2,MC,NonProj,0.11,block1,17,29,15
89,7998,stuntman,stupid,stupid,C,0.71,block1,3,32,1
89,4836,boyfriend,MC5,MC,NonProj,0.02,block1,4,32,2
89,6783,soccer,NRRC,NRRC,B,0.8,block1,5,32,3
89,3919,bmw,NomApp,NomApp,B,0.79,block1,6,32,4
89,5337,aunt,possNP,possNP,B,0.79,block1,7,32,5
89,6086,ballet,MC4,MC,NonProj,0,block1,8,32,6
89,8126,muffins,only,only,C,0.59,block1,9,32,7
89,4414,hat,MC6,MC,NonProj,0,block1,10,32,8
89,3578,cheat,MC3,MC,NonProj,0,block1,11,32,9
89,6996,nails,stop,stop,C,0.62,block1,12,32,10
89,4200,veggie,MC1,MC,NonProj,0,block1,13,32,11
89,4843,olives,annoyed,annoyed,C,0.75,block1,14,32,12
89,14085,cupcakes,know,know,C,0.83,block1,15,32,13
89,3376,alcatraz,MC2,MC,NonProj,0.02,block1,16,32,14
89,3972,play,discover,discover,C,0.77,block1,17,32,15
91,7357,pizza,MC6,MC,NonProj,0.17,block1,3,25,1
91,4088,bmw,MC5,MC,NonProj,0.23,block1,4,25,2
91,8271,kids,stupid,stupid,C,0.69,block1,5,25,3
91,6211,stuntman,MC1,MC,NonProj,0.33,block1,6,25,4
91,3868,alcatraz,MC4,MC,NonProj,0.3,block1,7,25,5
91,3528,boyfriend,MC3,MC,NonProj,0.26,block1,8,25,6
91,4388,veggie,NomApp,NomApp,B,0.27,block1,9,25,7
91,4547,play,know,know,C,0.3,block1,10,25,8
91,5732,aunt,possNP,possNP,B,0.58,block1,11,25,9
91,3976,soccer,discover,discover,C,0.35,block1,12,25,10
91,3652,cheat,MC2,MC,NonProj,0.16,block1,13,25,11
91,2380,cupcakes,NRRC,NRRC,B,0.23,block1,14,25,12
91,2867,hat,annoyed,annoyed,C,0.26,block1,15,25,13
91,4671,ballet,stop,stop,C,0.67,block1,16,25,14
91,1924,muffins,only,only,C,0.5,block1,17,25,15
92,7378,cheat,MC6,MC,NonProj,1,block1,3,54,1
92,16660,soccer,discover,discover,C,0.76,block1,4,54,2
92,11309,bmw,NomApp,NomApp,B,0.66,block1,5,54,3
92,9527,kids,stupid,stupid,C,0.85,block1,6,54,4
92,8662,hat,annoyed,annoyed,C,0.99,block1,7,54,5
92,12741,play,MC3,MC,NonProj,0,block1,8,54,6
92,6850,muffins,MC5,MC,NonProj,0.01,block1,9,54,7
92,16902,aunt,know,know,C,0.87,block1,10,54,8
92,6928,boyfriend,possNP,possNP,B,0.91,block1,11,54,9
92,5163,olives,MC4,MC,NonProj,0.02,block1,12,54,10
92,10078,pizza,only,only,C,0.87,block1,13,54,11
92,7796,veggie,NRRC,NRRC,B,0.92,block1,14,54,12
92,8904,nails,stop,stop,C,0.97,block1,15,54,13
92,6007,stuntman,MC1,MC,NonProj,0,block1,16,54,14
92,7127,ballet,MC2,MC,NonProj,0.01,block1,17,54,15
93,29572,pizza,only,only,C,0.65,block1,3,28,1
93,6192,veggie,MC6,MC,NonProj,0,block1,4,28,2
93,8928,soccer,NRRC,NRRC,B,0.5,block1,5,28,3
93,8039,alcatraz,know,know,C,0.63,block1,6,28,4
93,15167,nails,stop,stop,C,0.76,block1,7,28,5
93,5967,aunt,MC5,MC,NonProj,0,block1,8,28,6
93,8256,play,discover,discover,C,0.52,block1,9,28,7
93,5887,ballet,MC3,MC,NonProj,0,block1,10,28,8
93,7128,muffins,MC2,MC,NonProj,0,block1,11,28,9
93,8047,boyfriend,possNP,possNP,B,0.75,block1,12,28,10
93,8720,hat,annoyed,annoyed,C,0.73,block1,13,28,11
93,7360,cupcakes,MC4,MC,NonProj,0.01,block1,14,28,12
93,4944,kids,stupid,stupid,C,0.78,block1,15,28,13
93,4767,cheat,MC1,MC,NonProj,0.01,block1,16,28,14
93,11041,bmw,NomApp,NomApp,B,0.73,block1,17,28,15
95,24923,play,discover,discover,C,0.84,block1,3,51,1
95,12463,alcatraz,MC5,MC,NonProj,0.07,block1,4,51,2
95,6104,stuntman,MC6,MC,NonProj,0.05,block1,5,51,3
95,6241,olives,MC4,MC,NonProj,0.02,block1,6,51,4
95,11820,kids,only,only,C,0.19,block1,7,51,5
95,9525,veggie,NomApp,NomApp,B,0.88,block1,8,51,6
95,11342,ballet,stop,stop,C,0.86,block1,9,51,7
95,10013,cheat,know,know,C,0.91,block1,10,51,8
95,12375,boyfriend,MC3,MC,NonProj,0.01,block1,11,51,9
95,8579,pizza,MC1,MC,NonProj,0.02,block1,12,51,10
95,9881,aunt,possNP,possNP,B,0.91,block1,13,51,11
95,8244,cupcakes,MC2,MC,NonProj,0.02,block1,14,51,12
95,9416,bmw,annoyed,annoyed,C,0.96,block1,15,51,13
95,11348,soccer,NRRC,NRRC,B,0.79,block1,16,51,14
95,15726,nails,stupid,stupid,C,0.23,block1,17,51,15
96,9793,bmw,MC4,MC,NonProj,0,block1,3,21,1
96,7290,cupcakes,NRRC,NRRC,B,0.54,block1,4,21,2
96,3435,muffins,MC3,MC,NonProj,0,block1,5,21,3
96,5692,hat,possNP,possNP,B,1,block1,6,21,4
96,4765,soccer,discover,discover,C,0,block1,7,21,5
96,5437,play,stop,stop,C,0,block1,8,21,6
96,3756,ballet,MC5,MC,NonProj,0.01,block1,9,21,7
96,5204,alcatraz,know,know,C,0.99,block1,10,21,8
96,5513,nails,MC2,MC,NonProj,0,block1,11,21,9
96,6762,veggie,NomApp,NomApp,B,1,block1,12,21,10
96,4780,boyfriend,MC6,MC,NonProj,0,block1,13,21,11
96,6653,cheat,stupid,stupid,C,0.26,block1,14,21,12
96,4574,olives,annoyed,annoyed,C,1,block1,15,21,13
96,6390,kids,only,only,C,0,block1,16,21,14
96,2705,pizza,MC1,MC,NonProj,0,block1,17,21,15
97,7711,boyfriend,MC6,MC,NonProj,0,block1,3,27,1
97,4663,pizza,MC2,MC,NonProj,0,block1,4,27,2
97,6335,nails,MC3,MC,NonProj,0,block1,5,27,3
97,14129,aunt,know,know,C,0.34,block1,6,27,4
97,10704,bmw,NomApp,NomApp,B,0.36,block1,7,27,5
97,9199,hat,possNP,possNP,B,0.72,block1,8,27,6
97,13647,cupcakes,NRRC,NRRC,B,0.59,block1,9,27,7
97,8865,muffins,only,only,C,0.14,block1,10,27,8
97,66631,ballet,stop,stop,C,0.96,block1,11,27,9
97,11057,cheat,stupid,stupid,C,0.54,block1,12,27,10
97,7184,olives,annoyed,annoyed,C,0.85,block1,13,27,11
97,8104,veggie,MC1,MC,NonProj,0,block1,14,27,12
97,5119,soccer,MC5,MC,NonProj,0.02,block1,15,27,13
97,6721,stuntman,MC4,MC,NonProj,0.02,block1,16,27,14
97,7464,play,discover,discover,C,0.4,block1,17,27,15
98,9234,kids,MC5,MC,NonProj,0,block1,3,33,1
98,6567,olives,MC3,MC,NonProj,0,block1,4,33,2
98,11456,pizza,only,only,C,0.75,block1,5,33,3
98,6880,hat,annoyed,annoyed,C,1,block1,6,33,4
98,8783,boyfriend,possNP,possNP,B,1,block1,7,33,5
98,6720,bmw,NomApp,NomApp,B,1,block1,8,33,6
98,7208,aunt,NRRC,NRRC,B,1,block1,9,33,7
98,7513,muffins,MC2,MC,NonProj,0,block1,10,33,8
98,5736,nails,stop,stop,C,1,block1,11,33,9
98,7855,stuntman,stupid,stupid,C,0.78,block1,12,33,10
98,6728,cheat,MC1,MC,NonProj,0,block1,13,33,11
98,7768,play,know,know,C,1,block1,14,33,12
98,5296,alcatraz,MC4,MC,NonProj,0,block1,15,33,13
98,7824,soccer,discover,discover,C,1,block1,16,33,14
98,6255,veggie,MC6,MC,NonProj,0,block1,17,33,15
99,10649,play,stop,stop,C,0.9,block1,3,26,1
99,9499,cupcakes,NRRC,NRRC,B,0.44,block1,4,26,2
99,9852,boyfriend,possNP,possNP,B,0.81,block1,5,26,3
99,7315,aunt,know,know,C,0.04,block1,6,26,4
99,4750,olives,MC1,MC,NonProj,0.04,block1,7,26,5
99,7139,soccer,MC5,MC,NonProj,0,block1,8,26,6
99,5541,nails,discover,discover,C,0.04,block1,9,26,7
99,4695,kids,only,only,C,0.05,block1,10,26,8
99,7718,hat,annoyed,annoyed,C,0.55,block1,11,26,9
99,8471,muffins,MC3,MC,NonProj,0.05,block1,12,26,10
99,3229,veggie,MC2,MC,NonProj,0.02,block1,13,26,11
99,7650,bmw,NomApp,NomApp,B,0.54,block1,14,26,12
99,3418,ballet,MC6,MC,NonProj,0.01,block1,15,26,13
99,3082,pizza,MC4,MC,NonProj,0.02,block1,16,26,14
99,5951,stuntman,stupid,stupid,C,0.04,block1,17,26,15
100,96865,aunt,MC5,MC,NonProj,0,block1,3,26,1
100,6335,hat,know,know,C,0,block1,4,26,2
100,3806,olives,annoyed,annoyed,C,0,block1,5,26,3
100,2846,pizza,discover,discover,C,0,block1,6,26,4
100,1929,muffins,MC3,MC,NonProj,0,block1,7,26,5
100,1936,cheat,stupid,stupid,C,0.18,block1,8,26,6
100,2000,kids,only,only,C,0.28,block1,9,26,7
100,11840,veggie,NomApp,NomApp,B,0,block1,10,26,8
100,37871,bmw,possNP,possNP,B,0.05,block1,11,26,9
100,11442,cupcakes,NRRC,NRRC,B,0.24,block1,12,26,10
100,3742,boyfriend,MC1,MC,NonProj,0,block1,13,26,11
100,3266,nails,stop,stop,C,0.05,block1,14,26,12
100,3343,alcatraz,MC2,MC,NonProj,0,block1,15,26,13
100,4872,ballet,MC6,MC,NonProj,0,block1,16,26,14
100,106663,soccer,MC4,MC,NonProj,0,block1,17,26,15
101,13019,play,stop,stop,C,1,block1,3,26,1
101,17015,aunt,possNP,possNP,B,1,block1,4,26,2
101,7293,boyfriend,MC6,MC,NonProj,0,block1,5,26,3
101,9168,alcatraz,discover,discover,C,1,block1,6,26,4
101,7056,ballet,MC1,MC,NonProj,0,block1,7,26,5
101,9817,muffins,NRRC,NRRC,B,1,block1,8,26,6
101,8550,pizza,only,only,C,0.98,block1,9,26,7
101,9552,cupcakes,know,know,C,1,block1,10,26,8
101,4763,olives,MC4,MC,NonProj,0,block1,11,26,9
101,6140,stuntman,NomApp,NomApp,B,1,block1,12,26,10
101,6695,veggie,MC3,MC,NonProj,0.02,block1,13,26,11
101,9144,soccer,annoyed,annoyed,C,1,block1,14,26,12
101,4324,hat,MC5,MC,NonProj,0,block1,15,26,13
101,10009,cheat,stupid,stupid,C,1,block1,16,26,14
101,5983,bmw,MC2,MC,NonProj,0,block1,17,26,15
102,12525,pizza,annoyed,annoyed,C,0.93,block1,3,33,1
102,6576,soccer,MC2,MC,NonProj,0,block1,4,33,2
102,16186,muffins,only,only,C,0.29,block1,5,33,3
102,5186,cheat,stupid,stupid,C,0.95,block1,6,33,4
102,6247,kids,MC6,MC,NonProj,0,block1,7,33,5
102,6735,play,MC3,MC,NonProj,0,block1,8,33,6
102,7280,olives,MC1,MC,NonProj,0,block1,9,33,7
102,10495,hat,possNP,possNP,B,0.95,block1,10,33,8
102,11222,aunt,know,know,C,0.95,block1,11,33,9
102,6347,stuntman,MC4,MC,NonProj,0,block1,12,33,10
102,7486,bmw,NomApp,NomApp,B,0.94,block1,13,33,11
102,5213,cupcakes,MC5,MC,NonProj,0,block1,14,33,12
102,10486,nails,stop,stop,C,0.95,block1,15,33,13
102,8351,boyfriend,NRRC,NRRC,B,1,block1,16,33,14
102,6984,alcatraz,discover,discover,C,0.95,block1,17,33,15
103,4599,cheat,MC4,MC,NonProj,0.12,block1,3,23,1
103,1936,alcatraz,discover,discover,C,0.12,block1,4,23,2
103,2263,ballet,MC6,MC,NonProj,0.15,block1,5,23,3
103,1704,nails,stop,stop,C,0.16,block1,6,23,4
103,1344,boyfriend,NRRC,NRRC,B,0.19,block1,7,23,5
103,1569,bmw,NomApp,NomApp,B,0.14,block1,8,23,6
103,5648,soccer,MC5,MC,NonProj,0.23,block1,9,23,7
103,3199,stuntman,stupid,stupid,C,0.11,block1,10,23,8
103,2680,muffins,MC1,MC,NonProj,0.19,block1,11,23,9
103,3560,kids,MC3,MC,NonProj,0.17,block1,12,23,10
103,10592,hat,possNP,possNP,B,0.84,block1,13,23,11
103,2504,olives,annoyed,annoyed,C,0.21,block1,14,23,12
103,5391,cupcakes,MC2,MC,NonProj,0.15,block1,15,23,13
103,3313,play,know,know,C,0.17,block1,16,23,14
103,1999,pizza,only,only,C,0.19,block1,17,23,15
104,7902,pizza,MC4,MC,NonProj,0.01,block1,3,24,1
104,8102,play,stop,stop,C,0.99,block1,4,24,2
104,5569,stuntman,MC2,MC,NonProj,0,block1,5,24,3
104,4377,cupcakes,MC5,MC,NonProj,0,block1,6,24,4
104,5511,nails,MC6,MC,NonProj,0,block1,7,24,5
104,9344,veggie,NRRC,NRRC,B,1,block1,8,24,6
104,9312,muffins,only,only,C,0.89,block1,9,24,7
104,4569,boyfriend,MC1,MC,NonProj,0,block1,10,24,8
104,6847,kids,stupid,stupid,C,1,block1,11,24,9
104,5584,ballet,NomApp,NomApp,B,1,block1,12,24,10
104,15559,bmw,annoyed,annoyed,C,0.99,block1,13,24,11
104,19353,soccer,discover,discover,C,0.68,block1,14,24,12
104,7991,hat,possNP,possNP,B,1,block1,15,24,13
104,6792,alcatraz,know,know,C,0.92,block1,16,24,14
104,4784,aunt,MC3,MC,NonProj,0,block1,17,24,15
105,8050,ballet,stop,stop,C,0.0600000000000001,block1,3,34,1
105,8952,aunt,possNP,possNP,B,0.62,block1,4,34,2
105,7284,kids,only,only,C,0,block1,5,34,3
105,5716,cupcakes,MC5,MC,NonProj,0,block1,6,34,4
105,9397,alcatraz,know,know,C,0.23,block1,7,34,5
105,6319,nails,MC6,MC,NonProj,0,block1,8,34,6
105,6989,soccer,discover,discover,C,0.74,block1,9,34,7
105,4970,stuntman,NomApp,NomApp,B,0.74,block1,10,34,8
105,7898,cheat,stupid,stupid,C,0,block1,11,34,9
105,5459,bmw,MC2,MC,NonProj,0,block1,12,34,10
105,4310,olives,MC3,MC,NonProj,0,block1,13,34,11
105,6824,boyfriend,NRRC,NRRC,B,0.93,block1,14,34,12
105,4790,play,MC4,MC,NonProj,0,block1,15,34,13
105,5507,hat,annoyed,annoyed,C,0.67,block1,16,34,14
105,6095,muffins,MC1,MC,NonProj,0,block1,17,34,15
106,6604,olives,annoyed,annoyed,C,1,block1,3,27,1
106,5287,aunt,possNP,possNP,B,0.61,block1,4,27,2
106,5303,cheat,stupid,stupid,C,0.3,block1,5,27,3
106,3111,alcatraz,MC1,MC,NonProj,0.02,block1,6,27,4
106,6223,bmw,know,know,C,0.65,block1,7,27,5
106,3207,stuntman,NomApp,NomApp,B,0.7,block1,8,27,6
106,5135,pizza,only,only,C,0.3,block1,9,27,7
106,3575,boyfriend,MC3,MC,NonProj,0.01,block1,10,27,8
106,4264,cupcakes,NRRC,NRRC,B,0.76,block1,11,27,9
106,3928,ballet,stop,stop,C,0.82,block1,12,27,10
106,6576,nails,discover,discover,C,0.4,block1,13,27,11
106,4343,play,MC5,MC,NonProj,0,block1,14,27,12
106,3191,veggie,MC2,MC,NonProj,0.16,block1,15,27,13
106,4272,soccer,MC6,MC,NonProj,0.02,block1,16,27,14
106,4991,kids,MC4,MC,NonProj,0.03,block1,17,27,15
107,13382,bmw,NomApp,NomApp,B,0.98,block1,3,28,1
107,4472,boyfriend,MC6,MC,NonProj,0,block1,4,28,2
107,4764,stuntman,MC4,MC,NonProj,0.02,block1,5,28,3
107,8051,muffins,NRRC,NRRC,B,0.96,block1,6,28,4
107,7007,aunt,possNP,possNP,B,0.98,block1,7,28,5
107,5292,kids,MC3,MC,NonProj,0.0600000000000001,block1,8,28,6
107,14284,ballet,stop,stop,C,0.73,block1,9,28,7
107,4903,pizza,only,only,C,0.05,block1,10,28,8
107,13712,soccer,discover,discover,C,0,block1,11,28,9
107,5184,nails,MC2,MC,NonProj,0.04,block1,12,28,10
107,7288,cheat,stupid,stupid,C,0.96,block1,13,28,11
107,5232,alcatraz,know,know,C,0.0600000000000001,block1,14,28,12
107,4487,cupcakes,MC1,MC,NonProj,0.04,block1,15,28,13
107,4938,veggie,MC5,MC,NonProj,0.02,block1,16,28,14
107,5310,olives,annoyed,annoyed,C,0.93,block1,17,28,15
108,12239,aunt,possNP,possNP,B,1,block1,3,54,1
108,14088,ballet,stop,stop,C,0.49,block1,4,54,2
108,6248,kids,MC3,MC,NonProj,0.02,block1,5,54,3
108,10520,muffins,only,only,C,0.52,block1,6,54,4
108,5328,cupcakes,MC4,MC,NonProj,0.01,block1,7,54,5
108,4671,veggie,MC5,MC,NonProj,0.01,block1,8,54,6
108,9503,alcatraz,discover,discover,C,0.98,block1,9,54,7
108,5329,olives,MC6,MC,NonProj,0.02,block1,10,54,8
108,10392,pizza,annoyed,annoyed,C,0.51,block1,11,54,9
108,4911,nails,MC1,MC,NonProj,0.02,block1,12,54,10
108,4647,play,MC2,MC,NonProj,0.03,block1,13,54,11
108,6736,bmw,NomApp,NomApp,B,0.5,block1,14,54,12
108,6136,boyfriend,NRRC,NRRC,B,0.99,block1,15,54,13
108,12232,stuntman,stupid,stupid,C,0.98,block1,16,54,14
108,13388,hat,know,know,C,0.98,block1,17,54,15
109,8863,ballet,NomApp,NomApp,B,0.91,block1,3,25,1
109,6449,hat,MC3,MC,NonProj,0.1,block1,4,25,2
109,9556,bmw,know,know,C,0.29,block1,5,25,3
109,7405,play,discover,discover,C,0.12,block1,6,25,4
109,24633,kids,only,only,C,0.16,block1,7,25,5
109,4710,boyfriend,possNP,possNP,B,0.85,block1,8,25,6
109,8907,nails,stop,stop,C,0.87,block1,9,25,7
109,4299,soccer,MC1,MC,NonProj,0.11,block1,10,25,8
109,6911,pizza,annoyed,annoyed,C,0.88,block1,11,25,9
109,6365,cupcakes,MC4,MC,NonProj,0.13,block1,12,25,10
109,4186,muffins,MC6,MC,NonProj,0.07,block1,13,25,11
109,12488,cheat,stupid,stupid,C,0.71,block1,14,25,12
109,15886,veggie,NRRC,NRRC,B,0.84,block1,15,25,13
109,5679,olives,MC5,MC,NonProj,0.12,block1,16,25,14
109,9991,alcatraz,MC2,MC,NonProj,0.09,block1,17,25,15
110,17803,cupcakes,NRRC,NRRC,B,0.21,block1,3,60,1
110,4921,veggie,MC1,MC,NonProj,0.02,block1,4,60,2
110,6927,alcatraz,know,know,C,0.02,block1,5,60,3
110,10718,pizza,discover,discover,C,0.22,block1,6,60,4
110,9681,bmw,annoyed,annoyed,C,0.98,block1,7,60,5
110,5216,soccer,MC6,MC,NonProj,0.03,block1,8,60,6
110,9735,aunt,possNP,possNP,B,0.98,block1,9,60,7
110,4339,cheat,MC4,MC,NonProj,0.02,block1,10,60,8
110,6876,ballet,NomApp,NomApp,B,0.97,block1,11,60,9
110,4196,boyfriend,MC2,MC,NonProj,0,block1,12,60,10
110,8917,nails,MC5,MC,NonProj,0.01,block1,13,60,11
110,5637,hat,MC3,MC,NonProj,0.02,block1,14,60,12
110,7093,muffins,only,only,C,0.02,block1,15,60,13
110,5682,kids,stupid,stupid,C,0.99,block1,16,60,14
110,11393,play,stop,stop,C,0.98,block1,17,60,15
111,8478,muffins,MC4,MC,NonProj,0,block1,3,30,1
111,6952,veggie,NRRC,NRRC,B,1,block1,4,30,2
111,6967,nails,stop,stop,C,0.98,block1,5,30,3
111,7312,pizza,only,only,C,0.01,block1,6,30,4
111,6912,bmw,NomApp,NomApp,B,1,block1,7,30,5
111,4744,ballet,MC1,MC,NonProj,0.04,block1,8,30,6
111,4632,stuntman,MC3,MC,NonProj,0.02,block1,9,30,7
111,8472,alcatraz,discover,discover,C,0.74,block1,10,30,8
111,6008,cupcakes,MC5,MC,NonProj,0.02,block1,11,30,9
111,3880,olives,MC2,MC,NonProj,0.01,block1,12,30,10
111,4424,boyfriend,possNP,possNP,B,0.98,block1,13,30,11
111,6103,hat,annoyed,annoyed,C,0.99,block1,14,30,12
111,6511,kids,stupid,stupid,C,0.99,block1,15,30,13
111,4232,play,MC6,MC,NonProj,0.03,block1,16,30,14
111,5576,soccer,know,know,C,0.04,block1,17,30,15
113,12388,soccer,NRRC,NRRC,B,1,block1,3,29,1
113,4677,cupcakes,MC3,MC,NonProj,0,block1,4,29,2
113,7848,veggie,NomApp,NomApp,B,1,block1,5,29,3
113,4895,olives,MC5,MC,NonProj,0,block1,6,29,4
113,8438,kids,only,only,C,0,block1,7,29,5
113,4304,aunt,MC1,MC,NonProj,0,block1,8,29,6
113,6831,hat,annoyed,annoyed,C,1,block1,9,29,7
113,4910,muffins,MC4,MC,NonProj,0,block1,10,29,8
113,4608,cheat,MC2,MC,NonProj,0,block1,11,29,9
113,7997,alcatraz,discover,discover,C,1,block1,12,29,10
113,5442,boyfriend,possNP,possNP,B,1,block1,13,29,11
113,4935,play,MC6,MC,NonProj,0,block1,14,29,12
113,4566,nails,stop,stop,C,0,block1,15,29,13
113,6433,stuntman,stupid,stupid,C,1,block1,16,29,14
113,6062,bmw,know,know,C,1,block1,17,29,15
114,38000,veggie,NomApp,NomApp,B,1,block1,3,30,1
114,6197,nails,stop,stop,C,0.85,block1,4,30,2
114,6329,olives,annoyed,annoyed,C,0.75,block1,5,30,3
114,3237,bmw,MC2,MC,NonProj,0.05,block1,6,30,4
114,3752,alcatraz,know,know,C,0.03,block1,7,30,5
114,6229,cheat,MC3,MC,NonProj,0.04,block1,8,30,6
114,5466,pizza,MC1,MC,NonProj,0.07,block1,9,30,7
114,6138,stuntman,stupid,stupid,C,0.92,block1,10,30,8
114,3938,hat,MC6,MC,NonProj,0.08,block1,11,30,9
114,8635,muffins,only,only,C,0.72,block1,12,30,10
114,19005,boyfriend,possNP,possNP,B,0.92,block1,13,30,11
114,3389,soccer,discover,discover,C,0.11,block1,14,30,12
114,2405,play,MC5,MC,NonProj,0.02,block1,15,30,13
114,4496,aunt,MC4,MC,NonProj,0.09,block1,16,30,14
114,4611,cupcakes,NRRC,NRRC,B,0.88,block1,17,30,15
115,8868,play,stop,stop,C,1,block1,3,29,1
115,4528,soccer,annoyed,annoyed,C,1,block1,4,29,2
115,3592,pizza,MC4,MC,NonProj,0,block1,5,29,3
115,7016,nails,discover,discover,C,0.94,block1,6,29,4
115,4280,veggie,NRRC,NRRC,B,0.96,block1,7,29,5
115,4528,stuntman,stupid,stupid,C,1,block1,8,29,6
115,3295,alcatraz,MC2,MC,NonProj,0,block1,9,29,7
115,6472,kids,only,only,C,0.66,block1,10,29,8
115,3319,ballet,MC1,MC,NonProj,0,block1,11,29,9
115,3560,cupcakes,MC6,MC,NonProj,0,block1,12,29,10
115,2304,cheat,MC3,MC,NonProj,0,block1,13,29,11
115,4839,aunt,know,know,C,1,block1,14,29,12
115,3543,bmw,NomApp,NomApp,B,1,block1,15,29,13
115,2512,boyfriend,possNP,possNP,B,1,block1,16,29,14
115,3103,hat,MC5,MC,NonProj,0,block1,17,29,15
116,9777,pizza,annoyed,annoyed,C,0.76,block1,3,31,1
116,4903,alcatraz,MC4,MC,NonProj,0.05,block1,4,31,2
116,8966,boyfriend,NRRC,NRRC,B,0.66,block1,5,31,3
116,3817,hat,MC3,MC,NonProj,0.01,block1,6,31,4
116,4231,cheat,stupid,stupid,C,0.01,block1,7,31,5
116,5366,olives,MC5,MC,NonProj,0.04,block1,8,31,6
116,6931,play,know,know,C,0.04,block1,9,31,7
116,8702,muffins,only,only,C,0.11,block1,10,31,8
116,4052,kids,MC1,MC,NonProj,0.0600000000000001,block1,11,31,9
116,4790,soccer,discover,discover,C,0.02,block1,12,31,10
116,8262,veggie,NomApp,NomApp,B,0.51,block1,13,31,11
116,5573,bmw,possNP,possNP,B,0.86,block1,14,31,12
116,3683,ballet,MC2,MC,NonProj,0.02,block1,15,31,13
116,4600,cupcakes,MC6,MC,NonProj,0.03,block1,16,31,14
116,8551,nails,stop,stop,C,0.95,block1,17,31,15
117,12965,ballet,stop,stop,C,0.96,block1,3,30,1
117,17444,muffins,only,only,C,0.76,block1,4,30,2
117,12514,play,know,know,C,0.56,block1,5,30,3
117,10734,bmw,possNP,possNP,B,0.84,block1,6,30,4
117,11374,cheat,stupid,stupid,C,0.69,block1,7,30,5
117,11352,pizza,MC2,MC,NonProj,0.09,block1,8,30,6
117,12483,hat,MC3,MC,NonProj,0.12,block1,9,30,7
117,7444,stuntman,MC1,MC,NonProj,0.09,block1,10,30,8
117,128514,veggie,NomApp,NomApp,B,0.65,block1,11,30,9
117,6867,olives,MC4,MC,NonProj,0.15,block1,12,30,10
117,6514,alcatraz,MC6,MC,NonProj,0.16,block1,13,30,11
117,11016,aunt,MC5,MC,NonProj,0.19,block1,14,30,12
117,12601,soccer,annoyed,annoyed,C,0.85,block1,15,30,13
117,8483,cupcakes,NRRC,NRRC,B,0.82,block1,16,30,14
117,19234,nails,discover,discover,C,0.3,block1,17,30,15
120,20397,pizza,discover,discover,C,0.24,block1,3,42,1
120,12589,nails,MC4,MC,NonProj,0.02,block1,4,42,2
120,10973,ballet,stop,stop,C,0.79,block1,5,42,3
120,11279,play,MC1,MC,NonProj,0,block1,6,42,4
120,7306,cupcakes,MC5,MC,NonProj,0.02,block1,7,42,5
120,10421,alcatraz,NRRC,NRRC,B,0.85,block1,8,42,6
120,13190,aunt,know,know,C,0.98,block1,9,42,7
120,10568,hat,possNP,possNP,B,0.98,block1,10,42,8
120,14620,veggie,NomApp,NomApp,B,0.99,block1,11,42,9
120,6458,kids,MC6,MC,NonProj,0.01,block1,12,42,10
120,6603,soccer,MC2,MC,NonProj,0.01,block1,13,42,11
120,5976,bmw,annoyed,annoyed,C,0.99,block1,14,42,12
120,7619,stuntman,stupid,stupid,C,0.98,block1,15,42,13
120,6852,olives,MC3,MC,NonProj,0.01,block1,16,42,14
120,7613,muffins,only,only,C,0.99,block1,17,42,15
121,7314,kids,MC5,MC,NonProj,0,block1,3,36,1
121,14513,veggie,NomApp,NomApp,B,0.53,block1,4,36,2
121,7397,play,stop,stop,C,0.02,block1,5,36,3
121,7776,muffins,MC6,MC,NonProj,0.02,block1,6,36,4
121,3535,stuntman,MC3,MC,NonProj,0.02,block1,7,36,5
121,6666,aunt,NRRC,NRRC,B,0.51,block1,8,36,6
121,5794,ballet,MC2,MC,NonProj,0.01,block1,9,36,7
121,9917,soccer,annoyed,annoyed,C,0.67,block1,10,36,8
121,7245,nails,stupid,stupid,C,0.73,block1,11,36,9
121,7226,pizza,only,only,C,0.43,block1,12,36,10
121,4887,hat,know,know,C,0.02,block1,13,36,11
121,7475,boyfriend,possNP,possNP,B,0.83,block1,14,36,12
121,3694,cheat,MC4,MC,NonProj,0.01,block1,15,36,13
121,6127,alcatraz,discover,discover,C,0.01,block1,16,36,14
121,9484,olives,MC1,MC,NonProj,0.01,block1,17,36,15
122,13780,veggie,MC2,MC,NonProj,0.02,block1,3,46,1
122,20572,alcatraz,know,know,C,0.3,block1,4,46,2
122,9688,play,stop,stop,C,0.01,block1,5,46,3
122,8640,hat,possNP,possNP,B,0.83,block1,6,46,4
122,7455,cupcakes,MC5,MC,NonProj,0.03,block1,7,46,5
122,11767,bmw,NomApp,NomApp,B,0.68,block1,8,46,6
122,7502,kids,MC6,MC,NonProj,0.02,block1,9,46,7
122,9633,nails,MC4,MC,NonProj,0.02,block1,10,46,8
122,6389,ballet,MC1,MC,NonProj,0.02,block1,11,46,9
122,13944,soccer,discover,discover,C,0.12,block1,12,46,10
122,9847,aunt,NRRC,NRRC,B,0.72,block1,13,46,11
122,17911,pizza,annoyed,annoyed,C,0.14,block1,14,46,12
122,15767,olives,MC3,MC,NonProj,0.02,block1,15,46,13
122,6924,cheat,stupid,stupid,C,0.18,block1,16,46,14
122,5872,muffins,only,only,C,0.03,block1,17,46,15
123,20006,play,discover,discover,C,0,block1,3,47,1
123,5427,soccer,MC6,MC,NonProj,0.01,block1,4,47,2
123,4956,boyfriend,MC1,MC,NonProj,0.01,block1,5,47,3
123,7942,alcatraz,know,know,C,0.12,block1,6,47,4
123,8766,aunt,possNP,possNP,B,0.9,block1,7,47,5
123,6301,cheat,MC4,MC,NonProj,0.01,block1,8,47,6
123,4730,kids,MC5,MC,NonProj,0.04,block1,9,47,7
123,9270,veggie,NomApp,NomApp,B,0.93,block1,10,47,8
123,8617,stuntman,stupid,stupid,C,0.95,block1,11,47,9
123,8646,cupcakes,MC3,MC,NonProj,0.02,block1,12,47,10
123,8308,muffins,NRRC,NRRC,B,0.98,block1,13,47,11
123,5378,olives,MC2,MC,NonProj,0,block1,14,47,12
123,8446,ballet,stop,stop,C,0.92,block1,15,47,13
123,10305,pizza,only,only,C,0.03,block1,16,47,14
123,15457,bmw,annoyed,annoyed,C,0.73,block1,17,47,15
124,11092,ballet,MC3,MC,NonProj,0.01,block1,3,68,1
124,5962,aunt,MC1,MC,NonProj,0.01,block1,4,68,2
124,5659,muffins,MC5,MC,NonProj,0.01,block1,5,68,3
124,10115,soccer,discover,discover,C,0.51,block1,6,68,4
124,5421,pizza,only,only,C,0.51,block1,7,68,5
124,10350,nails,MC6,MC,NonProj,0.01,block1,8,68,6
124,15537,cupcakes,NRRC,NRRC,B,0.98,block1,9,68,7
124,11767,olives,annoyed,annoyed,C,0.98,block1,10,68,8
124,14301,play,stop,stop,C,0.52,block1,11,68,9
124,8100,stuntman,NomApp,NomApp,B,0.86,block1,12,68,10
124,6715,boyfriend,MC4,MC,NonProj,0.03,block1,13,68,11
124,5760,bmw,MC2,MC,NonProj,0.01,block1,14,68,12
124,9790,alcatraz,know,know,C,0.81,block1,15,68,13
124,9661,hat,possNP,possNP,B,0.99,block1,16,68,14
124,9833,cheat,stupid,stupid,C,0.73,block1,17,68,15
125,26341,alcatraz,NRRC,NRRC,B,0.37,block1,3,60,1
125,12209,play,know,know,C,0.98,block1,4,60,2
125,8308,cheat,MC3,MC,NonProj,0.01,block1,5,60,3
125,93703,ballet,MC1,MC,NonProj,0.01,block1,6,60,4
125,29395,muffins,only,only,C,0.79,block1,7,60,5
125,4238,veggie,MC4,MC,NonProj,0.02,block1,8,60,6
125,7004,nails,stop,stop,C,0.97,block1,9,60,7
125,14331,aunt,MC6,MC,NonProj,0.02,block1,10,60,8
125,10153,soccer,discover,discover,C,0.5,block1,11,60,9
125,9567,pizza,MC5,MC,NonProj,0.01,block1,12,60,10
125,8346,hat,possNP,possNP,B,0.98,block1,13,60,11
125,14997,kids,stupid,stupid,C,0.51,block1,14,60,12
125,8138,stuntman,MC2,MC,NonProj,0.02,block1,15,60,13
125,8020,olives,annoyed,annoyed,C,0.98,block1,16,60,14
125,21347,bmw,NomApp,NomApp,B,0.98,block1,17,60,15
126,10008,ballet,MC4,MC,NonProj,0,block1,3,25,1
126,6614,soccer,MC3,MC,NonProj,0,block1,4,25,2
126,4988,cheat,MC5,MC,NonProj,0,block1,5,25,3
126,4889,hat,MC6,MC,NonProj,0,block1,6,25,4
126,7655,play,stop,stop,C,0.98,block1,7,25,5
126,6222,olives,annoyed,annoyed,C,0.74,block1,8,25,6
126,3966,boyfriend,MC2,MC,NonProj,0,block1,9,25,7
126,9738,cupcakes,NRRC,NRRC,B,0.89,block1,10,25,8
126,5868,aunt,possNP,possNP,B,1,block1,11,25,9
126,7198,nails,stupid,stupid,C,1,block1,12,25,10
126,5067,pizza,discover,discover,C,0,block1,13,25,11
126,3755,alcatraz,know,know,C,0,block1,14,25,12
126,9888,muffins,only,only,C,0.75,block1,15,25,13
126,7551,bmw,NomApp,NomApp,B,1,block1,16,25,14
126,3651,stuntman,MC1,MC,NonProj,0,block1,17,25,15
127,9015,alcatraz,discover,discover,C,0.0600000000000001,block1,3,38,1
127,6330,hat,possNP,possNP,B,0.65,block1,4,38,2
127,4477,stuntman,NomApp,NomApp,B,0.74,block1,5,38,3
127,3889,bmw,know,know,C,0.09,block1,6,38,4
127,4545,olives,MC5,MC,NonProj,0.08,block1,7,38,5
127,5511,play,stop,stop,C,0.68,block1,8,38,6
127,5847,cheat,stupid,stupid,C,0.53,block1,9,38,7
127,3545,pizza,MC2,MC,NonProj,0.12,block1,10,38,8
127,5576,kids,only,only,C,0.37,block1,11,38,9
127,6076,nails,MC1,MC,NonProj,0.13,block1,12,38,10
127,3641,veggie,MC3,MC,NonProj,0.1,block1,13,38,11
127,6774,aunt,MC6,MC,NonProj,0.04,block1,14,38,12
127,3117,muffins,MC4,MC,NonProj,0.12,block1,15,38,13
127,4861,cupcakes,NRRC,NRRC,B,0.65,block1,16,38,14
127,4109,soccer,annoyed,annoyed,C,0.65,block1,17,38,15
128,10232,play,stop,stop,C,0.97,block1,3,26,1
128,5997,nails,stupid,stupid,C,0.81,block1,4,26,2
128,3811,bmw,annoyed,annoyed,C,0.74,block1,5,26,3
128,6471,hat,MC1,MC,NonProj,0.0600000000000001,block1,6,26,4
128,3612,veggie,MC2,MC,NonProj,0.07,block1,7,26,5
128,4577,cheat,know,know,C,0.84,block1,8,26,6
128,3634,soccer,MC6,MC,NonProj,0.13,block1,9,26,7
128,2900,muffins,MC3,MC,NonProj,0.12,block1,10,26,8
128,3758,aunt,NRRC,NRRC,B,0.78,block1,11,26,9
128,3062,kids,MC4,MC,NonProj,0.14,block1,12,26,10
128,2692,cupcakes,MC5,MC,NonProj,0.12,block1,13,26,11
128,4584,boyfriend,possNP,possNP,B,0.87,block1,14,26,12
128,3478,pizza,only,only,C,0.14,block1,15,26,13
128,6141,ballet,NomApp,NomApp,B,0.78,block1,16,26,14
128,6161,alcatraz,discover,discover,C,0.14,block1,17,26,15
129,5513,ballet,MC6,MC,NonProj,0,block1,3,25,1
129,3781,cupcakes,MC5,MC,NonProj,0,block1,4,25,2
129,4263,kids,MC2,MC,NonProj,0.25,block1,5,25,3
129,10648,soccer,know,know,C,0.48,block1,6,25,4
129,15048,play,stop,stop,C,0.87,block1,7,25,5
129,9896,olives,MC1,MC,NonProj,0.5,block1,8,25,6
129,3872,nails,MC4,MC,NonProj,0.26,block1,9,25,7
129,5908,veggie,NomApp,NomApp,B,1,block1,10,25,8
129,9093,aunt,NRRC,NRRC,B,1,block1,11,25,9
129,3415,hat,MC3,MC,NonProj,0,block1,12,25,10
129,16173,boyfriend,possNP,possNP,B,1,block1,13,25,11
129,4915,pizza,only,only,C,0.71,block1,14,25,12
129,4549,alcatraz,discover,discover,C,0.76,block1,15,25,13
129,3647,bmw,annoyed,annoyed,C,0.83,block1,16,25,14
129,3774,stuntman,stupid,stupid,C,1,block1,17,25,15
130,7476,bmw,possNP,possNP,B,0.04,block1,3,21,1
130,7159,stuntman,stupid,stupid,C,0.0600000000000001,block1,4,21,2
130,25359,soccer,NRRC,NRRC,B,0.36,block1,5,21,3
130,5751,aunt,MC5,MC,NonProj,0.0600000000000001,block1,6,21,4
130,35063,play,discover,discover,C,0.05,block1,7,21,5
130,5048,olives,annoyed,annoyed,C,0,block1,8,21,6
130,2216,cheat,know,know,C,0,block1,9,21,7
130,2343,alcatraz,MC4,MC,NonProj,0,block1,10,21,8
130,1335,veggie,MC2,MC,NonProj,0,block1,11,21,9
130,1240,muffins,MC1,MC,NonProj,0,block1,12,21,10
130,2991,nails,stop,stop,C,0.15,block1,13,21,11
130,2008,kids,MC3,MC,NonProj,0,block1,14,21,12
130,2440,ballet,NomApp,NomApp,B,0,block1,15,21,13
130,3871,boyfriend,MC6,MC,NonProj,0.11,block1,16,21,14
130,1383,pizza,only,only,C,0.0600000000000001,block1,17,21,15
131,9395,stuntman,NomApp,NomApp,B,0.96,block1,3,27,1
131,4872,pizza,MC5,MC,NonProj,0,block1,4,27,2
131,6158,ballet,MC6,MC,NonProj,0.03,block1,5,27,3
131,5524,boyfriend,possNP,possNP,B,0.97,block1,6,27,4
131,5790,soccer,know,know,C,0.96,block1,7,27,5
131,4414,kids,MC1,MC,NonProj,0.02,block1,8,27,6
131,10450,cupcakes,NRRC,NRRC,B,0.97,block1,9,27,7
131,4232,hat,annoyed,annoyed,C,0.95,block1,10,27,8
131,4594,aunt,MC4,MC,NonProj,0.03,block1,11,27,9
131,5378,nails,stop,stop,C,0.99,block1,12,27,10
131,5718,cheat,stupid,stupid,C,0.98,block1,13,27,11
131,8404,muffins,only,only,C,0.99,block1,14,27,12
131,4705,play,MC3,MC,NonProj,0.02,block1,15,27,13
131,5719,alcatraz,discover,discover,C,0.99,block1,16,27,14
131,4146,bmw,MC2,MC,NonProj,0.01,block1,17,27,15
132,6953,stuntman,NomApp,NomApp,B,1,block1,3,28,1
132,5166,boyfriend,possNP,possNP,B,0.99,block1,4,28,2
132,13319,ballet,stop,stop,C,0.98,block1,5,28,3
132,5560,soccer,annoyed,annoyed,C,1,block1,6,28,4
132,15512,pizza,discover,discover,C,0,block1,7,28,5
132,28017,cupcakes,MC3,MC,NonProj,0,block1,8,28,6
132,4871,kids,only,only,C,0,block1,9,28,7
132,16032,nails,MC6,MC,NonProj,0,block1,10,28,8
132,5798,bmw,know,know,C,1,block1,11,28,9
132,6401,play,MC2,MC,NonProj,0,block1,12,28,10
132,5519,alcatraz,NRRC,NRRC,B,1,block1,13,28,11
132,3752,olives,MC5,MC,NonProj,0,block1,14,28,12
132,3240,veggie,MC4,MC,NonProj,0,block1,15,28,13
132,3848,aunt,MC1,MC,NonProj,0,block1,16,28,14
132,3924,cheat,stupid,stupid,C,1,block1,17,28,15
133,4516,bmw,NomApp,NomApp,B,0.11,block1,3,40,1
133,3016,alcatraz,MC3,MC,NonProj,0.15,block1,4,40,2
133,3616,stuntman,stupid,stupid,C,0.14,block1,5,40,3
133,3902,cupcakes,MC6,MC,NonProj,0.13,block1,6,40,4
133,5250,veggie,MC4,MC,NonProj,0.15,block1,7,40,5
133,6799,aunt,NRRC,NRRC,B,0.02,block1,8,40,6
133,8867,muffins,only,only,C,0.07,block1,9,40,7
133,5922,pizza,discover,discover,C,0.13,block1,10,40,8
133,3945,kids,MC2,MC,NonProj,0.22,block1,11,40,9
133,4766,play,stop,stop,C,0.22,block1,12,40,10
133,8068,olives,annoyed,annoyed,C,0.9,block1,13,40,11
133,1915,ballet,MC1,MC,NonProj,0.29,block1,14,40,12
133,1965,hat,know,know,C,0.16,block1,15,40,13
133,4070,boyfriend,possNP,possNP,B,0.88,block1,16,40,14
133,3582,nails,MC5,MC,NonProj,0.19,block1,17,40,15
134,5176,hat,know,know,C,1,block1,3,29,1
134,4743,boyfriend,NRRC,NRRC,B,1,block1,4,29,2
134,2825,bmw,possNP,possNP,B,1,block1,5,29,3
134,4734,aunt,MC6,MC,NonProj,0,block1,6,29,4
134,5941,nails,discover,discover,C,1,block1,7,29,5
134,2717,cupcakes,MC2,MC,NonProj,0,block1,8,29,6
134,10760,pizza,only,only,C,0.98,block1,9,29,7
134,3545,olives,annoyed,annoyed,C,1,block1,10,29,8
134,2933,muffins,MC1,MC,NonProj,0,block1,11,29,9
134,9224,stuntman,MC4,MC,NonProj,0,block1,12,29,10
134,5074,ballet,stop,stop,C,1,block1,13,29,11
134,7739,kids,stupid,stupid,C,0,block1,14,29,12
134,6317,veggie,NomApp,NomApp,B,1,block1,15,29,13
134,2368,cheat,MC5,MC,NonProj,0,block1,16,29,14
134,7964,play,MC3,MC,NonProj,0.02,block1,17,29,15
135,9206,cupcakes,NRRC,NRRC,B,0.83,block1,3,30,1
135,3360,boyfriend,MC5,MC,NonProj,0,block1,4,30,2
135,4415,olives,annoyed,annoyed,C,1,block1,5,30,3
135,3929,stuntman,stupid,stupid,C,1,block1,6,30,4
135,3912,alcatraz,MC6,MC,NonProj,0,block1,7,30,5
135,2848,hat,possNP,possNP,B,0.97,block1,8,30,6
135,3535,play,stop,stop,C,0,block1,9,30,7
135,5210,soccer,discover,discover,C,0.47,block1,10,30,8
135,4664,cheat,know,know,C,1,block1,11,30,9
135,2207,veggie,MC4,MC,NonProj,0,block1,12,30,10
135,4264,bmw,NomApp,NomApp,B,0.88,block1,13,30,11
135,2976,nails,MC1,MC,NonProj,0,block1,14,30,12
135,2760,aunt,MC2,MC,NonProj,0,block1,15,30,13
135,2759,ballet,MC3,MC,NonProj,0,block1,16,30,14
135,5896,pizza,only,only,C,0.51,block1,17,30,15
136,13132,hat,annoyed,annoyed,C,0.98,block1,3,28,1
136,6621,veggie,NRRC,NRRC,B,1,block1,4,28,2
136,8323,nails,stupid,stupid,C,0.97,block1,5,28,3
136,9213,play,stop,stop,C,1,block1,6,28,4
136,5160,ballet,NomApp,NomApp,B,1,block1,7,28,5
136,5501,aunt,MC6,MC,NonProj,0,block1,8,28,6
136,3974,olives,MC5,MC,NonProj,0.03,block1,9,28,7
136,2893,alcatraz,MC1,MC,NonProj,0,block1,10,28,8
136,2436,muffins,only,only,C,0.0600000000000001,block1,11,28,9
136,2660,boyfriend,MC3,MC,NonProj,0,block1,12,28,10
136,2953,soccer,MC2,MC,NonProj,0,block1,13,28,11
136,6484,bmw,possNP,possNP,B,1,block1,14,28,12
136,6412,pizza,discover,discover,C,0.98,block1,15,28,13
136,5452,cupcakes,MC4,MC,NonProj,0,block1,16,28,14
136,5501,cheat,know,know,C,0.99,block1,17,28,15
137,11637,cupcakes,MC6,MC,NonProj,0,block1,3,53,1
137,9382,muffins,only,only,C,0.49,block1,4,53,2
137,8310,hat,MC4,MC,NonProj,0,block1,5,53,3
137,17461,nails,discover,discover,C,0.78,block1,6,53,4
137,12701,cheat,stupid,stupid,C,0.5,block1,7,53,5
137,9332,ballet,stop,stop,C,0.92,block1,8,53,6
137,8328,soccer,MC1,MC,NonProj,0,block1,9,53,7
137,10053,boyfriend,possNP,possNP,B,1,block1,10,53,8
137,5587,kids,MC2,MC,NonProj,0,block1,11,53,9
137,6295,bmw,know,know,C,0.97,block1,12,53,10
137,6507,veggie,NomApp,NomApp,B,0.99,block1,13,53,11
137,7997,pizza,annoyed,annoyed,C,1,block1,14,53,12
137,4685,aunt,MC5,MC,NonProj,0,block1,15,53,13
137,6147,olives,MC3,MC,NonProj,0,block1,16,53,14
137,6897,alcatraz,NRRC,NRRC,B,1,block1,17,53,15
138,7970,cupcakes,MC6,MC,NonProj,0.04,block1,3,32,1
138,11134,olives,annoyed,annoyed,C,0.5,block1,4,32,2
138,5542,stuntman,MC1,MC,NonProj,0.03,block1,5,32,3
138,5775,play,know,know,C,0.5,block1,6,32,4
138,7200,hat,possNP,possNP,B,0.71,block1,7,32,5
138,4992,ballet,NomApp,NomApp,B,0.59,block1,8,32,6
138,7223,soccer,discover,discover,C,0.51,block1,9,32,7
138,4432,bmw,MC4,MC,NonProj,0.03,block1,10,32,8
138,6310,boyfriend,MC2,MC,NonProj,0.02,block1,11,32,9
138,4009,alcatraz,MC5,MC,NonProj,0.02,block1,12,32,10
138,7623,kids,stupid,stupid,C,0.53,block1,13,32,11
138,6613,pizza,only,only,C,0.4,block1,14,32,12
138,9073,nails,stop,stop,C,0.84,block1,15,32,13
138,4878,veggie,MC3,MC,NonProj,0.01,block1,16,32,14
138,8191,muffins,NRRC,NRRC,B,0.57,block1,17,32,15
139,4487,kids,stupid,stupid,C,0.99,block1,3,31,1
139,4407,stuntman,NomApp,NomApp,B,0.59,block1,4,31,2
139,5609,pizza,annoyed,annoyed,C,0.99,block1,5,31,3
139,3727,bmw,MC4,MC,NonProj,0.01,block1,6,31,4
139,3848,soccer,MC2,MC,NonProj,0.02,block1,7,31,5
139,4560,boyfriend,NRRC,NRRC,B,0.51,block1,8,31,6
139,5255,muffins,only,only,C,0.52,block1,9,31,7
139,6072,play,discover,discover,C,0.52,block1,10,31,8
139,3456,cupcakes,MC3,MC,NonProj,0.01,block1,11,31,9
139,3281,aunt,MC5,MC,NonProj,0.02,block1,12,31,10
139,5423,nails,MC6,MC,NonProj,0.02,block1,13,31,11
139,3600,cheat,know,know,C,0.48,block1,14,31,12
139,6312,ballet,stop,stop,C,0.3,block1,15,31,13
139,4454,olives,MC1,MC,NonProj,0.02,block1,16,31,14
139,3425,hat,possNP,possNP,B,0.51,block1,17,31,15
140,7326,soccer,MC6,MC,NonProj,0.03,block1,3,21,1
140,10023,hat,annoyed,annoyed,C,0.8,block1,4,21,2
140,13037,cupcakes,know,know,C,0.76,block1,5,21,3
140,9475,pizza,discover,discover,C,0.64,block1,6,21,4
140,6897,boyfriend,MC3,MC,NonProj,0.04,block1,7,21,5
140,8571,play,MC4,MC,NonProj,0.07,block1,8,21,6
140,7430,veggie,MC2,MC,NonProj,0.0600000000000001,block1,9,21,7
140,13091,kids,only,only,C,0.13,block1,10,21,8
140,10028,stuntman,NomApp,NomApp,B,0.82,block1,11,21,9
140,12514,aunt,NRRC,NRRC,B,0.6,block1,12,21,10
140,13516,bmw,possNP,possNP,B,0.59,block1,13,21,11
140,10409,nails,stop,stop,C,0.84,block1,14,21,12
140,7577,cheat,stupid,stupid,C,0.11,block1,15,21,13
140,7908,ballet,MC1,MC,NonProj,0.04,block1,16,21,14
140,7396,olives,MC5,MC,NonProj,0.09,block1,17,21,15
141,12830,cupcakes,know,know,C,1,block1,3,30,1
141,4603,stuntman,MC4,MC,NonProj,0.01,block1,4,30,2
141,11347,muffins,only,only,C,0.42,block1,5,30,3
141,4220,hat,MC6,MC,NonProj,0.01,block1,6,30,4
141,6976,play,stop,stop,C,0.96,block1,7,30,5
141,4623,boyfriend,MC2,MC,NonProj,0,block1,8,30,6
141,4560,olives,MC5,MC,NonProj,0,block1,9,30,7
141,6335,veggie,NomApp,NomApp,B,0.97,block1,10,30,8
141,4988,soccer,MC3,MC,NonProj,0.02,block1,11,30,9
141,6060,ballet,MC1,MC,NonProj,0.01,block1,12,30,10
141,7117,nails,discover,discover,C,0.96,block1,13,30,11
141,5252,bmw,possNP,possNP,B,0.92,block1,14,30,12
141,6690,pizza,annoyed,annoyed,C,0.99,block1,15,30,13
141,7146,aunt,NRRC,NRRC,B,1,block1,16,30,14
141,7357,kids,stupid,stupid,C,0.97,block1,17,30,15
142,140841,pizza,only,only,C,0,block1,3,21,1
142,26447,muffins,MC5,MC,NonProj,0,block1,4,21,2
142,9427,stuntman,MC1,MC,NonProj,0,block1,5,21,3
142,8851,alcatraz,know,know,C,1,block1,6,21,4
142,9426,nails,MC4,MC,NonProj,0,block1,7,21,5
142,11674,cheat,stupid,stupid,C,1,block1,8,21,6
142,106518,hat,MC2,MC,NonProj,0,block1,9,21,7
142,4210,olives,annoyed,annoyed,C,1,block1,10,21,8
142,32023,soccer,discover,discover,C,0,block1,11,21,9
142,10907,ballet,NomApp,NomApp,B,0,block1,12,21,10
142,10411,aunt,possNP,possNP,B,0,block1,13,21,11
142,7481,cupcakes,MC3,MC,NonProj,0,block1,14,21,12
142,6737,veggie,NRRC,NRRC,B,0,block1,15,21,13
142,4211,boyfriend,MC6,MC,NonProj,0.03,block1,16,21,14
142,8396,play,stop,stop,C,0.02,block1,17,21,15
143,149041,veggie,NomApp,NomApp,B,1,block1,3,25,1
143,15202,olives,annoyed,annoyed,C,1,block1,4,25,2
143,9847,soccer,MC5,MC,NonProj,0,block1,5,25,3
143,8609,alcatraz,discover,discover,C,1,block1,6,25,4
143,11731,pizza,MC1,MC,NonProj,0,block1,7,25,5
143,9944,muffins,only,only,C,0,block1,8,25,6
143,105835,cupcakes,NRRC,NRRC,B,0.05,block1,9,25,7
143,12009,ballet,MC3,MC,NonProj,0,block1,10,25,8
143,24187,play,stop,stop,C,0,block1,11,25,9
143,13845,nails,stupid,stupid,C,0,block1,12,25,10
143,7265,bmw,MC2,MC,NonProj,0,block1,13,25,11
143,7853,kids,MC6,MC,NonProj,0,block1,14,25,12
